Timestamp,Accelerometer X,Accelerometer Y,Accelerometer Z,Gyroscope X,Gyroscope Y,Gyroscope Z,Magnetometer X,Magnetometer Y,Magnetometer Z,Euler X,Euler Y,Euler Z,Pressure,Step count,Activity,Rotation Vector X,Rotation Vector Y,Rotation Vector Z,Rotation Vector W,Game Rotation Vector X,Game Rotation Vector Y,Game Rotation Vector Z,Game Rotation Vector W,Calibration
97867979614.0,232.0,-4095.0,-557.0,5.0,13.0,8.0,-390.0,650.0,479.0,4315.0,296.0,8957.0,9681784.0,728.0,0.0,-11634.0,4293.0,-4277.0,9815.0,-6140.0,10692.0,-9672.0,4780.0,63.0
97867999633.0,251.0,-4083.0,-550.0,3.0,8.0,8.0,-390.0,653.0,473.0,4316.0,295.0,8956.0,9681784.0,728.0,0.0,-11633.0,4295.0,-4278.0,9815.0,-6138.0,10692.0,-9673.0,4779.0,63.0
97868019653.0,244.0,-4063.0,-555.0,-2.0,3.0,7.0,-393.0,654.0,472.0,4316.0,295.0,8955.0,9681784.0,728.0,0.0,-11631.0,4296.0,-4279.0,9817.0,-6136.0,10693.0,-9672.0,4780.0,63.0
97868039672.0,255.0,-4084.0,-550.0,-1.0,5.0,-2.0,-393.0,654.0,472.0,4317.0,295.0,8954.0,9681784.0,728.0,0.0,-11630.0,4296.0,-4280.0,9817.0,-6136.0,10694.0,-9672.0,4779.0,63.0
97868059692.0,251.0,-4060.0,-548.0,3.0,10.0,-19.0,-397.0,654.0,474.0,4321.0,298.0,8953.0,9681830.0,728.0,0.0,-11630.0,4294.0,-4283.0,9817.0,-6137.0,10693.0,-9674.0,4776.0,63.0
97868079711.0,259.0,-4049.0,-527.0,8.0,7.0,-8.0,-398.0,654.0,476.0,4323.0,299.0,8952.0,9681830.0,728.0,0.0,-11629.0,4293.0,-4287.0,9817.0,-6137.0,10692.0,-9676.0,4774.0,63.0
97868099731.0,256.0,-4051.0,-539.0,5.0,7.0,-10.0,-399.0,655.0,478.0,4326.0,301.0,8951.0,9681830.0,728.0,0.0,-11628.0,4292.0,-4289.0,9817.0,-6137.0,10691.0,-9678.0,4773.0,63.0
97868119750.0,261.0,-4055.0,-521.0,2.0,4.0,-4.0,-398.0,656.0,479.0,4328.0,302.0,8949.0,9681830.0,728.0,0.0,-11627.0,4290.0,-4292.0,9818.0,-6137.0,10690.0,-9680.0,4772.0,63.0
97868139770.0,258.0,-4037.0,-525.0,-5.0,4.0,0.0,-399.0,653.0,475.0,4329.0,303.0,8948.0,9681814.0,728.0,0.0,-11626.0,4290.0,-4294.0,9819.0,-6137.0,10690.0,-9680.0,4771.0,63.0
97868159790.0,262.0,-4062.0,-517.0,-3.0,2.0,-6.0,-396.0,655.0,473.0,4331.0,304.0,8947.0,9681814.0,728.0,0.0,-11625.0,4289.0,-4296.0,9820.0,-6137.0,10690.0,-9681.0,4770.0,63.0
97868179809.0,274.0,-4063.0,-523.0,-4.0,7.0,-16.0,-399.0,652.0,469.0,4333.0,306.0,8947.0,9681814.0,728.0,0.0,-11625.0,4287.0,-4298.0,9818.0,-6138.0,10690.0,-9681.0,4767.0,63.0
97868199829.0,274.0,-4062.0,-514.0,-5.0,17.0,-20.0,-396.0,655.0,470.0,4338.0,308.0,8947.0,9681814.0,728.0,0.0,-11626.0,4286.0,-4303.0,9817.0,-6139.0,10689.0,-9683.0,4763.0,63.0
97868219848.0,266.0,-4074.0,-522.0,-13.0,25.0,-23.0,-395.0,658.0,472.0,4344.0,312.0,8947.0,9681885.0,728.0,0.0,-11626.0,4286.0,-4308.0,9814.0,-6140.0,10690.0,-9685.0,4757.0,63.0
97868239868.0,291.0,-4054.0,-507.0,-31.0,37.0,-10.0,-391.0,657.0,470.0,4351.0,314.0,8950.0,9681885.0,728.0,0.0,-11628.0,4288.0,-4313.0,9808.0,-6140.0,10693.0,-9685.0,4750.0,63.0
97868259887.0,295.0,-4070.0,-510.0,-46.0,39.0,4.0,-397.0,656.0,473.0,4357.0,315.0,8954.0,9681885.0,728.0,0.0,-11630.0,4294.0,-4317.0,9802.0,-6138.0,10699.0,-9683.0,4743.0,63.0
97868279907.0,323.0,-4065.0,-492.0,-44.0,32.0,2.0,-395.0,657.0,474.0,4362.0,316.0,8958.0,9681885.0,728.0,0.0,-11632.0,4300.0,-4320.0,9795.0,-6136.0,10705.0,-9681.0,4736.0,63.0
97868299926.0,322.0,-4065.0,-513.0,-44.0,15.0,3.0,-397.0,656.0,477.0,4365.0,316.0,8962.0,9681845.0,728.0,0.0,-11636.0,4303.0,-4321.0,9789.0,-6136.0,10710.0,-9678.0,4730.0,63.0
97868319946.0,308.0,-4047.0,-529.0,-42.0,0.0,5.0,-402.0,657.0,480.0,4366.0,316.0,8967.0,9681845.0,728.0,0.0,-11640.0,4306.0,-4319.0,9784.0,-6138.0,10715.0,-9673.0,4727.0,63.0
97868339965.0,286.0,-4066.0,-576.0,-48.0,-7.0,6.0,-400.0,656.0,476.0,4365.0,315.0,8972.0,9681845.0,728.0,0.0,-11645.0,4308.0,-4315.0,9778.0,-6140.0,10721.0,-9666.0,4725.0,63.0
97868359985.0,290.0,-4040.0,-581.0,-51.0,-1.0,9.0,-394.0,654.0,474.0,4364.0,315.0,8978.0,9681845.0,728.0,0.0,-11650.0,4311.0,-4312.0,9773.0,-6143.0,10727.0,-9660.0,4723.0,63.0
97868380004.0,290.0,-4029.0,-586.0,-49.0,5.0,10.0,-394.0,654.0,474.0,4365.0,314.0,8983.0,9681915.0,728.0,0.0,-11655.0,4315.0,-4310.0,9766.0,-6144.0,10733.0,-9653.0,4720.0,63.0
97868400024.0,294.0,-4008.0,-587.0,-34.0,4.0,20.0,-394.0,654.0,478.0,4364.0,313.0,8987.0,9681915.0,728.0,0.0,-11658.0,4319.0,-4308.0,9762.0,-6144.0,10738.0,-9648.0,4718.0,63.0
97868420043.0,279.0,-4061.0,-624.0,-25.0,6.0,35.0,-396.0,649.0,479.0,4362.0,310.0,8991.0,9681809.0,728.0,0.0,-11659.0,4325.0,-4304.0,9759.0,-6141.0,10744.0,-9644.0,4718.0,63.0
97868440063.0,266.0,-4053.0,-627.0,-29.0,11.0,31.0,-398.0,649.0,478.0,4360.0,306.0,8994.0,9681809.0,728.0,0.0,-11660.0,4331.0,-4300.0,9757.0,-6138.0,10750.0,-9639.0,4718.0,63.0
97868460083.0,250.0,-4047.0,-632.0,-34.0,17.0,30.0,-399.0,653.0,485.0,4359.0,303.0,8998.0,9681809.0,728.0,0.0,-11662.0,4338.0,-4298.0,9753.0,-6134.0,10757.0,-9634.0,4717.0,63.0
97868480102.0,254.0,-4044.0,-619.0,-32.0,27.0,30.0,-408.0,650.0,482.0,4359.0,301.0,9001.0,9681809.0,728.0,0.0,-11662.0,4346.0,-4297.0,9749.0,-6130.0,10763.0,-9630.0,4715.0,63.0
97868500122.0,258.0,-4045.0,-609.0,-27.0,30.0,30.0,-408.0,651.0,480.0,4360.0,298.0,9004.0,9681870.0,728.0,0.0,-11662.0,4353.0,-4296.0,9746.0,-6125.0,10770.0,-9627.0,4713.0,63.0
97868520141.0,263.0,-4070.0,-613.0,-22.0,32.0,30.0,-402.0,650.0,481.0,4362.0,295.0,9006.0,9681870.0,728.0,0.0,-11662.0,4361.0,-4296.0,9743.0,-6120.0,10776.0,-9625.0,4710.0,63.0
97868540161.0,253.0,-4066.0,-601.0,-24.0,32.0,18.0,-399.0,648.0,483.0,4364.0,294.0,9008.0,9681870.0,728.0,0.0,-11661.0,4368.0,-4297.0,9740.0,-6115.0,10781.0,-9624.0,4707.0,63.0
97868560180.0,263.0,-4072.0,-604.0,-32.0,25.0,20.0,-395.0,653.0,483.0,4366.0,292.0,9011.0,9681870.0,728.0,0.0,-11662.0,4375.0,-4298.0,9736.0,-6112.0,10787.0,-9621.0,4704.0,63.0
97868580200.0,258.0,-4081.0,-626.0,-49.0,19.0,14.0,-395.0,650.0,478.0,4367.0,291.0,9016.0,9681785.0,728.0,0.0,-11665.0,4381.0,-4297.0,9730.0,-6110.0,10794.0,-9616.0,4700.0,63.0
97868600219.0,252.0,-4108.0,-625.0,-55.0,18.0,5.0,-394.0,651.0,479.0,4369.0,291.0,9021.0,9681785.0,728.0,0.0,-11669.0,4386.0,-4296.0,9723.0,-6110.0,10801.0,-9611.0,4695.0,63.0
97868620239.0,251.0,-4072.0,-636.0,-65.0,15.0,-6.0,-394.0,650.0,478.0,4373.0,292.0,9028.0,9681785.0,728.0,0.0,-11675.0,4390.0,-4296.0,9714.0,-6112.0,10808.0,-9604.0,4689.0,63.0
97868640258.0,253.0,-4051.0,-622.0,-76.0,9.0,2.0,-395.0,651.0,482.0,4367.0,292.0,9037.0,9681785.0,728.0,0.0,-11686.0,4386.0,-4287.0,9707.0,-6115.0,10816.0,-9597.0,4682.0,63.0
97868660278.0,240.0,-4032.0,-617.0,-89.0,0.0,14.0,-395.0,653.0,484.0,4362.0,290.0,9047.0,9681840.0,728.0,0.0,-11696.0,4387.0,-4277.0,9698.0,-6118.0,10826.0,-9587.0,4678.0,63.0
97868680297.0,225.0,-4031.0,-642.0,-102.0,-3.0,18.0,-397.0,653.0,485.0,4360.0,288.0,9058.0,9681840.0,728.0,0.0,-11706.0,4395.0,-4270.0,9686.0,-6121.0,10837.0,-9574.0,4673.0,63.0
97868700317.0,204.0,-4002.0,-652.0,-112.0,-3.0,35.0,-398.0,654.0,487.0,4355.0,284.0,9072.0,9681840.0,728.0,0.0,-11717.0,4403.0,-4259.0,9674.0,-6123.0,10851.0,-9559.0,4670.0,63.0
97868720336.0,199.0,-3989.0,-654.0,-109.0,0.0,57.0,-399.0,656.0,484.0,4358.0,278.0,9084.0,9681840.0,728.0,0.0,-11723.0,4424.0,-4255.0,9659.0,-6122.0,10865.0,-9543.0,4668.0,63.0
97868740356.0,205.0,-4010.0,-660.0,-103.0,-2.0,62.0,-400.0,654.0,481.0,4362.0,271.0,9096.0,9681708.0,728.0,0.0,-11727.0,4449.0,-4253.0,9644.0,-6120.0,10880.0,-9528.0,4668.0,63.0
97868760375.0,217.0,-4009.0,-668.0,-89.0,-9.0,59.0,-401.0,654.0,482.0,4359.0,264.0,9107.0,9681708.0,728.0,0.0,-11733.0,4464.0,-4245.0,9633.0,-6119.0,10893.0,-9514.0,4669.0,63.0
97868780395.0,205.0,-4013.0,-673.0,-72.0,-18.0,55.0,-399.0,649.0,482.0,4353.0,257.0,9117.0,9681708.0,728.0,0.0,-11738.0,4477.0,-4235.0,9625.0,-6117.0,10904.0,-9501.0,4672.0,63.0
97868800415.0,200.0,-4013.0,-678.0,-64.0,-34.0,52.0,-397.0,649.0,485.0,4339.0,250.0,9125.0,9681708.0,728.0,0.0,-11746.0,4479.0,-4218.0,9622.0,-6117.0,10913.0,-9488.0,4676.0,63.0
97868820434.0,202.0,-4036.0,-675.0,-50.0,-53.0,56.0,-394.0,646.0,486.0,4322.0,243.0,9131.0,9681992.0,728.0,0.0,-11753.0,4479.0,-4200.0,9621.0,-6118.0,10919.0,-9476.0,4684.0,63.0
97868840454.0,178.0,-4052.0,-695.0,-37.0,-70.0,43.0,-396.0,642.0,489.0,4309.0,236.0,9137.0,9681992.0,728.0,0.0,-11758.0,4483.0,-4185.0,9620.0,-6121.0,10924.0,-9464.0,4694.0,63.0
97868860473.0,172.0,-4041.0,-693.0,-26.0,-78.0,22.0,-393.0,645.0,488.0,4298.0,231.0,9141.0,9681992.0,728.0,0.0,-11762.0,4483.0,-4173.0,9620.0,-6127.0,10925.0,-9454.0,4704.0,63.0
97868880493.0,156.0,-4043.0,-711.0,-14.0,-88.0,18.0,-394.0,644.0,488.0,4290.0,227.0,9144.0,9681992.0,728.0,0.0,-11764.0,4486.0,-4165.0,9620.0,-6134.0,10924.0,-9445.0,4715.0,63.0
97868900512.0,149.0,-4038.0,-731.0,-10.0,-89.0,17.0,-386.0,644.0,487.0,4268.0,222.0,9147.0,9681855.0,728.0,0.0,-11772.0,4472.0,-4143.0,9626.0,-6141.0,10922.0,-9437.0,4726.0,63.0
97868920532.0,146.0,-4029.0,-718.0,-9.0,-85.0,21.0,-386.0,643.0,494.0,4243.0,218.0,9149.0,9681855.0,728.0,0.0,-11781.0,4455.0,-4119.0,9633.0,-6148.0,10921.0,-9429.0,4738.0,63.0
97868940551.0,138.0,-4048.0,-710.0,-2.0,-77.0,22.0,-384.0,641.0,494.0,4226.0,213.0,9150.0,9681855.0,728.0,0.0,-11785.0,4448.0,-4104.0,9638.0,-6153.0,10919.0,-9422.0,4749.0,63.0
97868960571.0,149.0,-4043.0,-696.0,6.0,-68.0,22.0,-384.0,640.0,496.0,4213.0,209.0,9150.0,9681855.0,728.0,0.0,-11787.0,4443.0,-4092.0,9643.0,-6157.0,10916.0,-9417.0,4760.0,63.0
97868980590.0,134.0,-4060.0,-693.0,12.0,-61.0,20.0,-389.0,645.0,500.0,4208.0,205.0,9149.0,9681800.0,728.0,0.0,-11785.0,4447.0,-4087.0,9646.0,-6160.0,10913.0,-9413.0,4771.0,63.0
97869000610.0,158.0,-4065.0,-692.0,6.0,-53.0,9.0,-389.0,645.0,500.0,4195.0,201.0,9148.0,9681800.0,728.0,0.0,-11786.0,4440.0,-4076.0,9653.0,-6165.0,10909.0,-9408.0,4783.0,63.0
97869020629.0,162.0,-4064.0,-706.0,-2.0,-53.0,4.0,-389.0,644.0,503.0,4187.0,199.0,9148.0,9681800.0,728.0,0.0,-11788.0,4435.0,-4069.0,9655.0,-6170.0,10907.0,-9404.0,4790.0,63.0
97869040649.0,173.0,-4061.0,-712.0,-12.0,-49.0,-3.0,-388.0,645.0,498.0,4181.0,199.0,9149.0,9681800.0,728.0,0.0,-11791.0,4430.0,-4063.0,9657.0,-6175.0,10905.0,-9400.0,4795.0,63.0
97869060668.0,169.0,-4028.0,-723.0,-23.0,-49.0,-2.0,-387.0,644.0,502.0,4175.0,198.0,9151.0,9681870.0,728.0,0.0,-11795.0,4425.0,-4056.0,9656.0,-6182.0,10905.0,-9394.0,4798.0,63.0
97869080688.0,185.0,-4028.0,-739.0,-34.0,-41.0,-3.0,-385.0,642.0,501.0,4170.0,198.0,9155.0,9681870.0,728.0,0.0,-11801.0,4421.0,-4050.0,9654.0,-6188.0,10906.0,-9387.0,4800.0,63.0
97869100708.0,187.0,-4011.0,-742.0,-43.0,-35.0,-3.0,-383.0,645.0,504.0,4166.0,198.0,9160.0,9681870.0,728.0,0.0,-11807.0,4419.0,-4045.0,9650.0,-6195.0,10908.0,-9380.0,4801.0,63.0
97869120727.0,192.0,-4012.0,-759.0,-42.0,-29.0,0.0,-381.0,647.0,508.0,4163.0,198.0,9165.0,9681870.0,728.0,0.0,-11813.0,4417.0,-4039.0,9645.0,-6201.0,10911.0,-9373.0,4801.0,63.0
97869140747.0,200.0,-4002.0,-767.0,-40.0,-27.0,2.0,-380.0,645.0,509.0,4160.0,198.0,9170.0,9681635.0,728.0,0.0,-11819.0,4416.0,-4034.0,9641.0,-6206.0,10914.0,-9366.0,4801.0,63.0
97869160766.0,200.0,-3989.0,-762.0,-27.0,-26.0,2.0,-373.0,645.0,509.0,4157.0,197.0,9174.0,9681635.0,728.0,0.0,-11823.0,4415.0,-4029.0,9638.0,-6210.0,10917.0,-9360.0,4802.0,63.0
97869180786.0,190.0,-4013.0,-765.0,-10.0,-22.0,2.0,-376.0,642.0,508.0,4153.0,197.0,9175.0,9681635.0,728.0,0.0,-11825.0,4413.0,-4026.0,9638.0,-6213.0,10917.0,-9356.0,4804.0,63.0
97869200805.0,185.0,-4008.0,-766.0,5.0,-23.0,0.0,-375.0,641.0,509.0,4151.0,196.0,9175.0,9681635.0,728.0,0.0,-11826.0,4411.0,-4023.0,9639.0,-6215.0,10916.0,-9355.0,4806.0,63.0
97869220825.0,190.0,-4024.0,-766.0,13.0,-20.0,-4.0,-376.0,642.0,509.0,4148.0,197.0,9174.0,9681563.0,728.0,0.0,-11826.0,4407.0,-4022.0,9641.0,-6217.0,10914.0,-9355.0,4809.0,63.0
97869240844.0,184.0,-4012.0,-760.0,14.0,-18.0,-3.0,-377.0,642.0,511.0,4146.0,197.0,9172.0,9681563.0,728.0,0.0,-11826.0,4404.0,-4021.0,9644.0,-6219.0,10911.0,-9355.0,4812.0,63.0
97869260864.0,173.0,-4021.0,-749.0,16.0,-11.0,0.0,-377.0,643.0,510.0,4145.0,197.0,9170.0,9681563.0,728.0,0.0,-11824.0,4402.0,-4020.0,9647.0,-6220.0,10909.0,-9356.0,4814.0,63.0
97869280883.0,185.0,-4013.0,-738.0,16.0,-3.0,1.0,-379.0,644.0,509.0,4144.0,197.0,9168.0,9681563.0,728.0,0.0,-11823.0,4400.0,-4020.0,9649.0,-6220.0,10907.0,-9357.0,4816.0,63.0
97869300903.0,169.0,-4042.0,-727.0,18.0,3.0,7.0,-385.0,646.0,512.0,4143.0,196.0,9166.0,9681538.0,728.0,0.0,-11820.0,4400.0,-4021.0,9652.0,-6218.0,10906.0,-9359.0,4818.0,63.0
97869320922.0,187.0,-4005.0,-718.0,17.0,-1.0,12.0,-384.0,649.0,514.0,4143.0,195.0,9164.0,9681538.0,728.0,0.0,-11818.0,4400.0,-4021.0,9655.0,-6216.0,10905.0,-9361.0,4819.0,63.0
97869340942.0,188.0,-4076.0,-709.0,18.0,-12.0,14.0,-379.0,652.0,512.0,4140.0,194.0,9161.0,9681538.0,728.0,0.0,-11815.0,4400.0,-4020.0,9659.0,-6214.0,10903.0,-9362.0,4824.0,63.0
97869360961.0,169.0,-4061.0,-723.0,16.0,-19.0,3.0,-379.0,648.0,511.0,4136.0,192.0,9159.0,9681538.0,728.0,0.0,-11814.0,4398.0,-4017.0,9662.0,-6214.0,10901.0,-9362.0,4827.0,63.0
97869380981.0,167.0,-4062.0,-705.0,17.0,-22.0,-12.0,-379.0,646.0,511.0,4134.0,193.0,9157.0,9681875.0,728.0,0.0,-11813.0,4394.0,-4016.0,9665.0,-6217.0,10898.0,-9363.0,4830.0,63.0
97869401000.0,170.0,-4036.0,-694.0,18.0,-22.0,-15.0,-380.0,643.0,511.0,4133.0,195.0,9155.0,9681875.0,728.0,0.0,-11813.0,4388.0,-4017.0,9668.0,-6220.0,10894.0,-9364.0,4832.0,63.0
97869421020.0,154.0,-4044.0,-706.0,14.0,-23.0,-6.0,-381.0,646.0,510.0,4130.0,195.0,9153.0,9681875.0,728.0,0.0,-11812.0,4384.0,-4015.0,9671.0,-6222.0,10890.0,-9365.0,4836.0,63.0
97869441040.0,151.0,-4017.0,-714.0,2.0,-20.0,2.0,-382.0,648.0,509.0,4127.0,194.0,9152.0,9681875.0,728.0,0.0,-11813.0,4382.0,-4013.0,9673.0,-6224.0,10889.0,-9363.0,4839.0,63.0
97869461059.0,146.0,-4035.0,-705.0,-3.0,-17.0,12.0,-384.0,646.0,507.0,4124.0,193.0,9152.0,9681860.0,728.0,0.0,-11813.0,4381.0,-4009.0,9675.0,-6225.0,10889.0,-9362.0,4842.0,63.0
97869481079.0,146.0,-4036.0,-706.0,-10.0,-12.0,14.0,-383.0,645.0,510.0,4120.0,191.0,9153.0,9681860.0,728.0,0.0,-11813.0,4382.0,-4005.0,9675.0,-6225.0,10890.0,-9359.0,4845.0,63.0
97869501098.0,135.0,-4052.0,-712.0,-14.0,-11.0,8.0,-385.0,645.0,509.0,4117.0,189.0,9154.0,9681860.0,728.0,0.0,-11814.0,4382.0,-4002.0,9675.0,-6225.0,10892.0,-9355.0,4847.0,63.0
97869521118.0,141.0,-4037.0,-712.0,-16.0,-11.0,8.0,-381.0,643.0,504.0,4114.0,188.0,9156.0,9681860.0,728.0,0.0,-11816.0,4383.0,-3999.0,9674.0,-6226.0,10894.0,-9352.0,4848.0,63.0
97869541137.0,133.0,-4027.0,-701.0,-15.0,-18.0,4.0,-377.0,643.0,503.0,4111.0,187.0,9157.0,9681845.0,728.0,0.0,-11817.0,4383.0,-3996.0,9674.0,-6228.0,10895.0,-9349.0,4850.0,63.0
97869561157.0,136.0,-4051.0,-725.0,-10.0,-21.0,-3.0,-376.0,642.0,508.0,4109.0,187.0,9158.0,9681845.0,728.0,0.0,-11820.0,4381.0,-3993.0,9673.0,-6231.0,10895.0,-9346.0,4851.0,63.0
97869581176.0,128.0,-4054.0,-728.0,-12.0,-20.0,-7.0,-377.0,641.0,511.0,4106.0,187.0,9160.0,9681845.0,728.0,0.0,-11822.0,4378.0,-3990.0,9673.0,-6234.0,10895.0,-9343.0,4853.0,63.0
97869601196.0,141.0,-4056.0,-732.0,-13.0,-14.0,-8.0,-381.0,648.0,512.0,4105.0,187.0,9161.0,9681845.0,728.0,0.0,-11824.0,4376.0,-3988.0,9672.0,-6237.0,10895.0,-9340.0,4853.0,63.0
97869621215.0,115.0,-4041.0,-735.0,-16.0,-2.0,-24.0,-378.0,648.0,511.0,4106.0,189.0,9163.0,9681689.0,728.0,0.0,-11827.0,4374.0,-3988.0,9669.0,-6241.0,10896.0,-9339.0,4851.0,63.0
97869641235.0,137.0,-4020.0,-729.0,-14.0,10.0,-16.0,-377.0,649.0,512.0,4110.0,192.0,9164.0,9681689.0,728.0,0.0,-11829.0,4372.0,-3991.0,9666.0,-6243.0,10896.0,-9338.0,4847.0,63.0
97869661254.0,143.0,-4026.0,-730.0,-15.0,14.0,-9.0,-379.0,648.0,513.0,4113.0,193.0,9166.0,9681689.0,728.0,0.0,-11830.0,4373.0,-3993.0,9664.0,-6244.0,10898.0,-9338.0,4844.0,63.0
97869681274.0,151.0,-4029.0,-734.0,-17.0,15.0,-4.0,-379.0,645.0,517.0,4116.0,194.0,9167.0,9681689.0,728.0,0.0,-11831.0,4374.0,-3995.0,9661.0,-6244.0,10900.0,-9337.0,4840.0,63.0
97869701293.0,162.0,-4030.0,-717.0,-20.0,14.0,-6.0,-376.0,645.0,517.0,4119.0,195.0,9169.0,9681834.0,728.0,0.0,-11833.0,4375.0,-3997.0,9658.0,-6244.0,10902.0,-9337.0,4837.0,63.0
97869721313.0,162.0,-4029.0,-725.0,-19.0,12.0,-12.0,-372.0,647.0,517.0,4122.0,197.0,9171.0,9681834.0,728.0,0.0,-11835.0,4376.0,-3999.0,9654.0,-6245.0,10904.0,-9335.0,4833.0,63.0
97869741333.0,165.0,-4017.0,-732.0,-19.0,7.0,-13.0,-376.0,641.0,508.0,4125.0,199.0,9173.0,9681834.0,728.0,0.0,-11837.0,4376.0,-4000.0,9651.0,-6247.0,10906.0,-9334.0,4829.0,63.0
97869761352.0,175.0,-4034.0,-742.0,-18.0,7.0,-10.0,-373.0,637.0,506.0,4127.0,200.0,9175.0,9681834.0,728.0,0.0,-11839.0,4376.0,-4002.0,9648.0,-6249.0,10907.0,-9333.0,4825.0,63.0
97869781372.0,167.0,-4018.0,-744.0,-16.0,5.0,-10.0,-375.0,635.0,512.0,4129.0,201.0,9177.0,9681760.0,728.0,0.0,-11841.0,4376.0,-4003.0,9646.0,-6251.0,10909.0,-9331.0,4823.0,63.0
97869801391.0,174.0,-4031.0,-743.0,-12.0,9.0,-10.0,-376.0,637.0,511.0,4132.0,203.0,9178.0,9681760.0,728.0,0.0,-11842.0,4375.0,-4005.0,9643.0,-6252.0,10910.0,-9331.0,4820.0,63.0
97869821411.0,165.0,-4014.0,-746.0,-9.0,13.0,-15.0,-378.0,638.0,508.0,4135.0,205.0,9179.0,9681760.0,728.0,0.0,-11843.0,4375.0,-4007.0,9641.0,-6253.0,10911.0,-9331.0,4816.0,63.0
97869841430.0,186.0,-4037.0,-761.0,-7.0,18.0,-13.0,-381.0,637.0,507.0,4140.0,207.0,9180.0,9681760.0,728.0,0.0,-11844.0,4375.0,-4011.0,9638.0,-6254.0,10911.0,-9332.0,4812.0,63.0
97869861450.0,195.0,-4037.0,-763.0,-11.0,18.0,-13.0,-382.0,638.0,509.0,4144.0,209.0,9181.0,9681896.0,728.0,0.0,-11845.0,4375.0,-4015.0,9635.0,-6254.0,10913.0,-9332.0,4807.0,63.0
97869881469.0,195.0,-4031.0,-757.0,-19.0,20.0,-10.0,-383.0,638.0,512.0,4148.0,211.0,9182.0,9681896.0,728.0,0.0,-11847.0,4376.0,-4018.0,9632.0,-6255.0,10915.0,-9332.0,4802.0,63.0
97869901489.0,207.0,-4035.0,-747.0,-21.0,16.0,-8.0,-380.0,636.0,512.0,4152.0,213.0,9184.0,9681896.0,728.0,0.0,-11848.0,4377.0,-4020.0,9628.0,-6256.0,10917.0,-9331.0,4798.0,63.0
97869921508.0,203.0,-4028.0,-767.0,-21.0,11.0,-11.0,-380.0,637.0,514.0,4156.0,215.0,9187.0,9681896.0,728.0,0.0,-11851.0,4378.0,-4022.0,9624.0,-6257.0,10919.0,-9330.0,4793.0,63.0
97869941528.0,204.0,-4010.0,-754.0,-20.0,9.0,-14.0,-381.0,638.0,513.0,4159.0,217.0,9189.0,9681826.0,728.0,0.0,-11853.0,4378.0,-4025.0,9620.0,-6259.0,10921.0,-9329.0,4789.0,63.0
97869961547.0,198.0,-4013.0,-766.0,-14.0,7.0,-13.0,-382.0,640.0,514.0,4162.0,219.0,9191.0,9681826.0,728.0,0.0,-11855.0,4377.0,-4026.0,9617.0,-6261.0,10922.0,-9328.0,4786.0,63.0
97869981567.0,203.0,-3992.0,-763.0,-12.0,7.0,-7.0,-381.0,642.0,514.0,4165.0,220.0,9192.0,9681826.0,728.0,0.0,-11857.0,4377.0,-4028.0,9615.0,-6262.0,10923.0,-9327.0,4783.0,63.0
97870001586.0,193.0,-4010.0,-767.0,-3.0,4.0,-2.0,-382.0,642.0,513.0,4167.0,221.0,9193.0,9681826.0,728.0,0.0,-11857.0,4376.0,-4030.0,9613.0,-6263.0,10925.0,-9326.0,4781.0,63.0
97870021606.0,198.0,-4004.0,-773.0,2.0,6.0,3.0,-381.0,645.0,510.0,4168.0,222.0,9193.0,9681875.0,728.0,0.0,-11857.0,4377.0,-4031.0,9613.0,-6263.0,10926.0,-9326.0,4779.0,63.0
97870041625.0,192.0,-4038.0,-772.0,3.0,11.0,1.0,-379.0,645.0,511.0,4169.0,222.0,9192.0,9681875.0,728.0,0.0,-11856.0,4377.0,-4032.0,9613.0,-6262.0,10926.0,-9326.0,4779.0,63.0
97870061645.0,187.0,-4014.0,-771.0,-1.0,15.0,-1.0,-378.0,648.0,514.0,4172.0,223.0,9192.0,9681875.0,728.0,0.0,-11856.0,4378.0,-4035.0,9612.0,-6261.0,10927.0,-9327.0,4777.0,63.0
97870081665.0,194.0,-4033.0,-769.0,-5.0,16.0,11.0,-379.0,651.0,512.0,4173.0,223.0,9192.0,9681875.0,728.0,0.0,-11855.0,4381.0,-4036.0,9612.0,-6259.0,10929.0,-9327.0,4775.0,63.0
97870101684.0,189.0,-4040.0,-766.0,-15.0,16.0,8.0,-379.0,651.0,513.0,4174.0,222.0,9194.0,9681806.0,728.0,0.0,-11855.0,4384.0,-4036.0,9610.0,-6257.0,10932.0,-9326.0,4773.0,63.0
97870121704.0,187.0,-4062.0,-763.0,-9.0,19.0,-1.0,-382.0,650.0,512.0,4177.0,222.0,9194.0,9681806.0,728.0,0.0,-11855.0,4387.0,-4038.0,9608.0,-6255.0,10934.0,-9325.0,4771.0,63.0
97870141723.0,193.0,-4016.0,-752.0,-3.0,19.0,-13.0,-381.0,646.0,514.0,4181.0,224.0,9195.0,9681806.0,728.0,0.0,-11855.0,4387.0,-4042.0,9606.0,-6255.0,10935.0,-9327.0,4767.0,63.0
97870161743.0,189.0,-4024.0,-739.0,4.0,14.0,-7.0,-384.0,646.0,513.0,4184.0,225.0,9194.0,9681806.0,728.0,0.0,-11854.0,4387.0,-4045.0,9606.0,-6254.0,10934.0,-9329.0,4765.0,63.0
97870181762.0,183.0,-4009.0,-752.0,5.0,9.0,-1.0,-379.0,646.0,513.0,4186.0,226.0,9193.0,9681809.0,728.0,0.0,-11853.0,4387.0,-4047.0,9606.0,-6254.0,10935.0,-9330.0,4764.0,63.0
97870201782.0,182.0,-4022.0,-750.0,6.0,8.0,2.0,-385.0,647.0,510.0,4187.0,226.0,9192.0,9681809.0,728.0,0.0,-11852.0,4388.0,-4049.0,9607.0,-6252.0,10935.0,-9330.0,4763.0,63.0
97870221801.0,173.0,-4009.0,-747.0,-4.0,8.0,3.0,-387.0,645.0,507.0,4187.0,226.0,9191.0,9681809.0,728.0,0.0,-11851.0,4389.0,-4049.0,9608.0,-6251.0,10936.0,-9330.0,4763.0,63.0
97870241821.0,179.0,-4032.0,-760.0,-9.0,9.0,7.0,-383.0,644.0,509.0,4188.0,225.0,9192.0,9681809.0,728.0,0.0,-11851.0,4391.0,-4050.0,9607.0,-6250.0,10938.0,-9329.0,4762.0,63.0
97870261840.0,169.0,-4008.0,-755.0,-12.0,8.0,7.0,-380.0,644.0,511.0,4188.0,225.0,9193.0,9681584.0,728.0,0.0,-11851.0,4393.0,-4049.0,9605.0,-6248.0,10940.0,-9328.0,4762.0,63.0
97870281860.0,164.0,-4012.0,-773.0,-10.0,7.0,8.0,-385.0,643.0,511.0,4188.0,224.0,9194.0,9681584.0,728.0,0.0,-11852.0,4396.0,-4048.0,9604.0,-6247.0,10942.0,-9326.0,4761.0,63.0
97870301879.0,163.0,-4027.0,-774.0,-3.0,11.0,2.0,-386.0,641.0,511.0,4189.0,223.0,9195.0,9681584.0,728.0,0.0,-11851.0,4397.0,-4049.0,9603.0,-6246.0,10944.0,-9326.0,4760.0,63.0
97870321899.0,159.0,-4023.0,-783.0,0.0,15.0,-5.0,-383.0,638.0,510.0,4191.0,224.0,9195.0,9681584.0,728.0,0.0,-11851.0,4399.0,-4051.0,9602.0,-6245.0,10945.0,-9326.0,4758.0,63.0
97870341918.0,180.0,-4036.0,-771.0,10.0,19.0,-7.0,-381.0,638.0,508.0,4194.0,225.0,9194.0,9681775.0,728.0,0.0,-11850.0,4399.0,-4054.0,9602.0,-6244.0,10945.0,-9329.0,4756.0,63.0
97870361938.0,160.0,-4030.0,-782.0,22.0,27.0,-26.0,-382.0,636.0,504.0,4200.0,228.0,9192.0,9681775.0,728.0,0.0,-11848.0,4399.0,-4060.0,9602.0,-6242.0,10943.0,-9333.0,4752.0,63.0
97870381958.0,171.0,-4001.0,-768.0,31.0,36.0,-29.0,-384.0,637.0,507.0,4208.0,232.0,9188.0,9681775.0,728.0,0.0,-11845.0,4397.0,-4069.0,9603.0,-6241.0,10940.0,-9340.0,4747.0,63.0
97870401977.0,171.0,-3992.0,-744.0,43.0,35.0,-10.0,-383.0,637.0,510.0,4214.0,234.0,9183.0,9681775.0,728.0,0.0,-11839.0,4396.0,-4077.0,9606.0,-6237.0,10937.0,-9348.0,4744.0,63.0
97870421997.0,189.0,-4061.0,-769.0,50.0,34.0,-7.0,-385.0,633.0,512.0,4219.0,236.0,9177.0,9681917.0,728.0,0.0,-11833.0,4397.0,-4085.0,9611.0,-6233.0,10933.0,-9356.0,4743.0,63.0
97870442016.0,173.0,-4062.0,-782.0,44.0,35.0,-16.0,-383.0,632.0,513.0,4225.0,238.0,9172.0,9681917.0,728.0,0.0,-11828.0,4397.0,-4092.0,9614.0,-6229.0,10930.0,-9363.0,4740.0,63.0
97870462036.0,189.0,-4075.0,-763.0,32.0,42.0,-30.0,-390.0,637.0,512.0,4233.0,242.0,9168.0,9681917.0,728.0,0.0,-11824.0,4395.0,-4102.0,9616.0,-6226.0,10926.0,-9372.0,4735.0,63.0
97870482055.0,204.0,-4075.0,-744.0,22.0,45.0,-44.0,-389.0,640.0,508.0,4247.0,247.0,9166.0,9681917.0,728.0,0.0,-11820.0,4398.0,-4116.0,9613.0,-6225.0,10923.0,-9380.0,4728.0,63.0
97870502075.0,213.0,-4048.0,-740.0,11.0,44.0,-49.0,-391.0,639.0,506.0,4264.0,253.0,9164.0,9681851.0,728.0,0.0,-11817.0,4402.0,-4132.0,9607.0,-6226.0,10921.0,-9387.0,4718.0,63.0
97870522094.0,217.0,-4011.0,-727.0,6.0,37.0,-52.0,-386.0,641.0,513.0,4252.0,260.0,9164.0,9681851.0,728.0,0.0,-11828.0,4373.0,-4120.0,9613.0,-6228.0,10919.0,-9393.0,4709.0,63.0
97870542114.0,241.0,-3978.0,-727.0,14.0,30.0,-36.0,-388.0,641.0,513.0,4261.0,266.0,9163.0,9681851.0,728.0,0.0,-11827.0,4370.0,-4130.0,9611.0,-6230.0,10916.0,-9398.0,4701.0,63.0
97870562133.0,243.0,-3958.0,-685.0,32.0,20.0,-23.0,-388.0,638.0,511.0,4267.0,269.0,9159.0,9681851.0,728.0,0.0,-11824.0,4368.0,-4137.0,9613.0,-6229.0,10912.0,-9405.0,4698.0,63.0
97870582153.0,245.0,-4052.0,-687.0,44.0,3.0,-11.0,-381.0,642.0,509.0,4270.0,271.0,9153.0,9681676.0,728.0,0.0,-11819.0,4364.0,-4142.0,9618.0,-6227.0,10907.0,-9412.0,4698.0,63.0
97870602172.0,237.0,-3959.0,-719.0,19.0,-8.0,5.0,-380.0,639.0,510.0,4269.0,271.0,9151.0,9681676.0,728.0,0.0,-11818.0,4362.0,-4143.0,9621.0,-6227.0,10904.0,-9414.0,4700.0,63.0
97870622192.0,229.0,-4057.0,-685.0,6.0,-6.0,13.0,-378.0,637.0,506.0,4266.0,269.0,9149.0,9681676.0,728.0,0.0,-11815.0,4363.0,-4141.0,9624.0,-6225.0,10903.0,-9415.0,4704.0,63.0
97870642211.0,228.0,-4038.0,-689.0,2.0,-6.0,5.0,-385.0,638.0,507.0,4265.0,269.0,9147.0,9681676.0,728.0,0.0,-11814.0,4362.0,-4141.0,9626.0,-6225.0,10902.0,-9415.0,4706.0,63.0
97870662231.0,218.0,-4052.0,-685.0,0.0,-5.0,15.0,-386.0,636.0,507.0,4263.0,267.0,9147.0,9681841.0,728.0,0.0,-11813.0,4362.0,-4139.0,9628.0,-6224.0,10903.0,-9414.0,4708.0,63.0
97870682250.0,219.0,-4088.0,-697.0,-1.0,-5.0,13.0,-390.0,636.0,506.0,4260.0,266.0,9146.0,9681841.0,728.0,0.0,-11812.0,4364.0,-4137.0,9629.0,-6223.0,10903.0,-9413.0,4711.0,63.0
97870702270.0,223.0,-4107.0,-733.0,-19.0,-2.0,0.0,-387.0,638.0,508.0,4260.0,265.0,9148.0,9681841.0,728.0,0.0,-11814.0,4364.0,-4135.0,9627.0,-6224.0,10905.0,-9411.0,4710.0,63.0
97870722290.0,244.0,-4058.0,-710.0,-41.0,0.0,-4.0,-388.0,639.0,504.0,4261.0,266.0,9152.0,9681841.0,728.0,0.0,-11818.0,4365.0,-4135.0,9623.0,-6226.0,10908.0,-9407.0,4707.0,63.0
97870742309.0,239.0,-4117.0,-780.0,-13.0,5.0,-4.0,-390.0,641.0,508.0,4262.0,267.0,9155.0,9681711.0,728.0,0.0,-11821.0,4366.0,-4134.0,9619.0,-6228.0,10911.0,-9404.0,4704.0,63.0
97870762329.0,226.0,-3946.0,-678.0,-22.0,0.0,-24.0,-386.0,641.0,509.0,4266.0,270.0,9156.0,9681711.0,728.0,0.0,-11823.0,4363.0,-4137.0,9616.0,-6231.0,10911.0,-9404.0,4701.0,63.0
97870782348.0,236.0,-4000.0,-725.0,-10.0,-4.0,12.0,-387.0,638.0,508.0,4265.0,269.0,9158.0,9681711.0,728.0,0.0,-11825.0,4364.0,-4135.0,9615.0,-6232.0,10912.0,-9402.0,4700.0,63.0
97870802368.0,214.0,-4034.0,-737.0,-15.0,-10.0,3.0,-388.0,635.0,510.0,4262.0,268.0,9159.0,9681711.0,728.0,0.0,-11826.0,4365.0,-4132.0,9614.0,-6232.0,10914.0,-9399.0,4702.0,63.0
97870822387.0,236.0,-4021.0,-782.0,-23.0,5.0,-5.0,-389.0,636.0,511.0,4264.0,269.0,9162.0,9681796.0,728.0,0.0,-11829.0,4365.0,-4132.0,9610.0,-6235.0,10916.0,-9396.0,4699.0,63.0
97870842407.0,235.0,-3988.0,-747.0,-19.0,8.0,0.0,-388.0,635.0,511.0,4265.0,270.0,9164.0,9681796.0,728.0,0.0,-11830.0,4366.0,-4133.0,9608.0,-6235.0,10918.0,-9395.0,4697.0,63.0
97870862426.0,255.0,-3986.0,-714.0,-5.0,2.0,-8.0,-391.0,635.0,515.0,4267.0,271.0,9165.0,9681796.0,728.0,0.0,-11831.0,4365.0,-4135.0,9606.0,-6236.0,10918.0,-9395.0,4694.0,63.0
97870882446.0,245.0,-3978.0,-745.0,30.0,-10.0,17.0,-392.0,638.0,514.0,4266.0,271.0,9162.0,9681796.0,728.0,0.0,-11829.0,4363.0,-4134.0,9610.0,-6236.0,10916.0,-9396.0,4697.0,63.0
97870902465.0,235.0,-4046.0,-756.0,38.0,-15.0,27.0,-394.0,637.0,512.0,4260.0,267.0,9157.0,9681700.0,728.0,0.0,-11824.0,4363.0,-4131.0,9617.0,-6233.0,10913.0,-9398.0,4704.0,63.0
97870922485.0,219.0,-4072.0,-764.0,19.0,-17.0,18.0,-396.0,638.0,512.0,4255.0,264.0,9155.0,9681700.0,728.0,0.0,-11821.0,4363.0,-4128.0,9622.0,-6230.0,10912.0,-9399.0,4711.0,63.0
97870942504.0,225.0,-4000.0,-737.0,4.0,-13.0,18.0,-392.0,638.0,509.0,4251.0,263.0,9154.0,9681700.0,728.0,0.0,-11821.0,4363.0,-4125.0,9624.0,-6230.0,10911.0,-9397.0,4714.0,63.0
97870962524.0,223.0,-4051.0,-736.0,9.0,-15.0,7.0,-390.0,639.0,507.0,4248.0,261.0,9153.0,9681700.0,728.0,0.0,-11820.0,4363.0,-4123.0,9627.0,-6229.0,10911.0,-9397.0,4718.0,63.0
97870982543.0,239.0,-4018.0,-748.0,19.0,-19.0,9.0,-390.0,642.0,504.0,4245.0,260.0,9151.0,9681736.0,728.0,0.0,-11819.0,4361.0,-4120.0,9630.0,-6230.0,10909.0,-9397.0,4721.0,63.0
97871002563.0,188.0,-3957.0,-733.0,27.0,-31.0,19.0,-389.0,638.0,503.0,4239.0,257.0,9149.0,9681736.0,728.0,0.0,-11817.0,4359.0,-4116.0,9635.0,-6229.0,10906.0,-9397.0,4728.0,63.0
97871022583.0,177.0,-4043.0,-727.0,38.0,-23.0,32.0,-388.0,639.0,504.0,4231.0,253.0,9144.0,9681736.0,728.0,0.0,-11812.0,4359.0,-4111.0,9643.0,-6226.0,10903.0,-9398.0,4737.0,63.0
97871042602.0,180.0,-4082.0,-747.0,39.0,-11.0,39.0,-388.0,638.0,500.0,4224.0,249.0,9140.0,9681736.0,728.0,0.0,-11807.0,4361.0,-4106.0,9650.0,-6221.0,10901.0,-9399.0,4746.0,63.0
97871062622.0,171.0,-4075.0,-730.0,15.0,2.0,13.0,-389.0,639.0,503.0,4221.0,246.0,9138.0,9681730.0,728.0,0.0,-11804.0,4362.0,-4105.0,9654.0,-6218.0,10901.0,-9400.0,4750.0,63.0
97871082641.0,165.0,-4067.0,-700.0,-1.0,9.0,4.0,-386.0,638.0,505.0,4221.0,245.0,9136.0,9681730.0,728.0,0.0,-11802.0,4364.0,-4105.0,9655.0,-6215.0,10901.0,-9401.0,4750.0,63.0
97871102661.0,193.0,-4058.0,-702.0,-15.0,14.0,7.0,-387.0,637.0,507.0,4223.0,245.0,9138.0,9681730.0,728.0,0.0,-11802.0,4366.0,-4106.0,9653.0,-6214.0,10903.0,-9400.0,4748.0,63.0
97871122680.0,184.0,-4057.0,-694.0,-29.0,9.0,1.0,-383.0,636.0,505.0,4224.0,245.0,9140.0,9681730.0,728.0,0.0,-11804.0,4369.0,-4106.0,9650.0,-6214.0,10907.0,-9398.0,4746.0,63.0
97871142700.0,177.0,-4034.0,-739.0,-41.0,10.0,0.0,-384.0,638.0,506.0,4225.0,245.0,9145.0,9681841.0,728.0,0.0,-11808.0,4372.0,-4105.0,9645.0,-6215.0,10912.0,-9393.0,4742.0,63.0
97871162719.0,171.0,-4034.0,-732.0,-54.0,20.0,8.0,-386.0,640.0,508.0,4227.0,244.0,9150.0,9681841.0,728.0,0.0,-11812.0,4377.0,-4104.0,9638.0,-6215.0,10918.0,-9388.0,4738.0,63.0
97871182739.0,161.0,-4044.0,-751.0,-63.0,35.0,10.0,-389.0,641.0,508.0,4234.0,243.0,9158.0,9681841.0,728.0,0.0,-11815.0,4390.0,-4107.0,9627.0,-6214.0,10927.0,-9381.0,4731.0,63.0
97871202758.0,158.0,-4021.0,-767.0,-72.0,57.0,14.0,-391.0,641.0,511.0,4236.0,242.0,9167.0,9681841.0,728.0,0.0,-11822.0,4397.0,-4105.0,9616.0,-6211.0,10938.0,-9375.0,4722.0,63.0
97871222778.0,170.0,-4038.0,-771.0,-75.0,75.0,19.0,-391.0,641.0,511.0,4242.0,241.0,9176.0,9681787.0,728.0,0.0,-11827.0,4409.0,-4106.0,9604.0,-6205.0,10950.0,-9370.0,4711.0,63.0
97871242797.0,173.0,-4014.0,-786.0,-72.0,94.0,16.0,-385.0,638.0,512.0,4236.0,241.0,9185.0,9681787.0,728.0,0.0,-11837.0,4406.0,-4097.0,9596.0,-6198.0,10964.0,-9366.0,4697.0,63.0
97871262817.0,168.0,-4003.0,-780.0,-65.0,111.0,20.0,-388.0,639.0,513.0,4249.0,241.0,9192.0,9681787.0,728.0,0.0,-11839.0,4424.0,-4105.0,9583.0,-6189.0,10977.0,-9363.0,4682.0,63.0
97871282836.0,188.0,-4015.0,-787.0,-54.0,126.0,24.0,-393.0,639.0,511.0,4276.0,241.0,9199.0,9681787.0,728.0,0.0,-11834.0,4456.0,-4125.0,9565.0,-6177.0,10991.0,-9364.0,4666.0,63.0
97871302856.0,207.0,-4010.0,-769.0,-52.0,131.0,27.0,-391.0,639.0,510.0,4288.0,241.0,9205.0,9681821.0,728.0,0.0,-11834.0,4472.0,-4134.0,9554.0,-6164.0,11004.0,-9365.0,4650.0,63.0
97871322875.0,218.0,-4014.0,-765.0,-44.0,127.0,21.0,-391.0,636.0,510.0,4300.0,241.0,9210.0,9681821.0,728.0,0.0,-11834.0,4486.0,-4143.0,9543.0,-6151.0,11016.0,-9367.0,4634.0,63.0
97871342895.0,228.0,-4014.0,-749.0,-39.0,113.0,19.0,-391.0,635.0,509.0,4313.0,241.0,9214.0,9681821.0,728.0,0.0,-11833.0,4502.0,-4152.0,9533.0,-6139.0,11027.0,-9369.0,4619.0,63.0
97871362915.0,208.0,-4014.0,-758.0,-36.0,101.0,13.0,-395.0,637.0,512.0,4324.0,241.0,9218.0,9681821.0,728.0,0.0,-11832.0,4515.0,-4160.0,9524.0,-6129.0,11037.0,-9370.0,4606.0,63.0
97871382934.0,231.0,-4034.0,-770.0,-32.0,87.0,6.0,-389.0,637.0,511.0,4324.0,242.0,9222.0,9681745.0,728.0,0.0,-11837.0,4513.0,-4158.0,9520.0,-6121.0,11045.0,-9372.0,4594.0,63.0
97871402954.0,224.0,-4028.0,-772.0,-31.0,68.0,7.0,-391.0,637.0,511.0,4333.0,243.0,9226.0,9681745.0,728.0,0.0,-11838.0,4522.0,-4164.0,9512.0,-6115.0,11052.0,-9373.0,4584.0,63.0
97871422973.0,217.0,-3992.0,-751.0,-28.0,52.0,5.0,-394.0,632.0,511.0,4341.0,244.0,9230.0,9681745.0,728.0,0.0,-11838.0,4532.0,-4170.0,9505.0,-6110.0,11058.0,-9373.0,4576.0,63.0
97871442993.0,206.0,-4021.0,-775.0,-14.0,36.0,7.0,-400.0,634.0,513.0,4346.0,244.0,9231.0,9681745.0,728.0,0.0,-11837.0,4538.0,-4173.0,9501.0,-6106.0,11063.0,-9373.0,4571.0,63.0
97871463012.0,200.0,-3996.0,-793.0,-6.0,29.0,7.0,-400.0,633.0,511.0,4349.0,244.0,9232.0,9681796.0,728.0,0.0,-11837.0,4542.0,-4176.0,9499.0,-6103.0,11066.0,-9373.0,4567.0,63.0
97871483032.0,163.0,-4025.0,-797.0,5.0,31.0,0.0,-397.0,631.0,508.0,4352.0,243.0,9232.0,9681796.0,728.0,0.0,-11835.0,4546.0,-4179.0,9498.0,-6099.0,11067.0,-9375.0,4565.0,63.0
97871503051.0,208.0,-4033.0,-804.0,13.0,43.0,-1.0,-396.0,630.0,509.0,4358.0,245.0,9230.0,9681796.0,728.0,0.0,-11832.0,4549.0,-4185.0,9498.0,-6095.0,11068.0,-9379.0,4560.0,63.0
97871523071.0,227.0,-4064.0,-782.0,2.0,39.0,-8.0,-401.0,636.0,507.0,4365.0,247.0,9229.0,9681796.0,728.0,0.0,-11830.0,4551.0,-4191.0,9497.0,-6091.0,11069.0,-9383.0,4555.0,63.0
97871543090.0,231.0,-3979.0,-753.0,-13.0,23.0,-12.0,-402.0,634.0,509.0,4370.0,249.0,9230.0,9681770.0,728.0,0.0,-11830.0,4553.0,-4196.0,9494.0,-6091.0,11070.0,-9384.0,4550.0,63.0
97871563110.0,197.0,-4040.0,-774.0,2.0,9.0,3.0,-404.0,639.0,508.0,4372.0,249.0,9229.0,9681770.0,728.0,0.0,-11829.0,4553.0,-4198.0,9494.0,-6089.0,11070.0,-9385.0,4549.0,63.0
97871583129.0,216.0,-4099.0,-832.0,-10.0,4.0,4.0,-399.0,638.0,509.0,4373.0,249.0,9229.0,9681770.0,728.0,0.0,-11829.0,4555.0,-4198.0,9493.0,-6089.0,11072.0,-9384.0,4548.0,63.0
97871603149.0,187.0,-4172.0,-893.0,-64.0,3.0,-11.0,-400.0,639.0,511.0,4374.0,250.0,9235.0,9681770.0,728.0,0.0,-11834.0,4557.0,-4196.0,9486.0,-6092.0,11077.0,-9378.0,4544.0,63.0
97871623168.0,239.0,-3967.0,-814.0,-111.0,8.0,-10.0,-400.0,636.0,509.0,4377.0,252.0,9248.0,9681802.0,728.0,0.0,-11846.0,4559.0,-4193.0,9471.0,-6098.0,11087.0,-9367.0,4534.0,63.0
97871643188.0,180.0,-4061.0,-726.0,-90.0,2.0,-35.0,-401.0,639.0,507.0,4387.0,254.0,9258.0,9681802.0,728.0,0.0,-11853.0,4570.0,-4197.0,9456.0,-6104.0,11094.0,-9358.0,4526.0,63.0
97871663208.0,195.0,-3983.0,-787.0,-89.0,-1.0,-63.0,-400.0,638.0,509.0,4389.0,260.0,9269.0,9681802.0,728.0,0.0,-11868.0,4561.0,-4193.0,9443.0,-6116.0,11099.0,-9350.0,4515.0,63.0
97871683227.0,190.0,-3991.0,-781.0,-78.0,-7.0,-47.0,-404.0,634.0,511.0,4400.0,265.0,9279.0,9681802.0,728.0,0.0,-11877.0,4565.0,-4198.0,9428.0,-6126.0,11104.0,-9342.0,4505.0,63.0
97871703247.0,172.0,-4012.0,-799.0,-64.0,-8.0,-54.0,-404.0,631.0,515.0,4397.0,269.0,9287.0,9681857.0,728.0,0.0,-11889.0,4554.0,-4192.0,9420.0,-6136.0,11107.0,-9336.0,4497.0,63.0
97871723266.0,177.0,-3961.0,-825.0,-44.0,4.0,-32.0,-401.0,629.0,517.0,4392.0,274.0,9294.0,9681857.0,728.0,0.0,-11902.0,4540.0,-4184.0,9415.0,-6143.0,11110.0,-9332.0,4490.0,63.0
97871743286.0,196.0,-4058.0,-814.0,-26.0,23.0,-24.0,-399.0,628.0,520.0,4397.0,276.0,9296.0,9681857.0,728.0,0.0,-11904.0,4541.0,-4187.0,9410.0,-6145.0,11112.0,-9331.0,4484.0,63.0
97871763305.0,266.0,-3862.0,-754.0,-18.0,22.0,-48.0,-397.0,628.0,519.0,4407.0,283.0,9298.0,9681857.0,728.0,0.0,-11908.0,4538.0,-4195.0,9404.0,-6150.0,11112.0,-9333.0,4474.0,63.0
97871783325.0,217.0,-4119.0,-892.0,21.0,5.0,-47.0,-399.0,628.0,517.0,4413.0,287.0,9297.0,9681745.0,728.0,0.0,-11908.0,4533.0,-4201.0,9403.0,-6153.0,11109.0,-9336.0,4470.0,63.0
97871803344.0,270.0,-3896.0,-877.0,16.0,9.0,-3.0,-402.0,627.0,515.0,4417.0,290.0,9296.0,9681745.0,728.0,0.0,-11908.0,4530.0,-4205.0,9402.0,-6155.0,11107.0,-9339.0,4467.0,63.0
97871823364.0,218.0,-4044.0,-859.0,10.0,14.0,-3.0,-404.0,623.0,514.0,4417.0,290.0,9294.0,9681745.0,728.0,0.0,-11905.0,4531.0,-4206.0,9405.0,-6152.0,11106.0,-9341.0,4467.0,63.0
97871843383.0,268.0,-3906.0,-850.0,-5.0,19.0,-9.0,-401.0,626.0,515.0,4422.0,292.0,9295.0,9681745.0,728.0,0.0,-11906.0,4531.0,-4210.0,9402.0,-6153.0,11106.0,-9342.0,4463.0,63.0
97871863403.0,234.0,-3984.0,-831.0,7.0,26.0,14.0,-406.0,628.0,513.0,4424.0,291.0,9294.0,9681625.0,728.0,0.0,-11903.0,4535.0,-4212.0,9403.0,-6149.0,11108.0,-9344.0,4462.0,63.0
97871883422.0,288.0,-3968.0,-839.0,18.0,18.0,12.0,-403.0,626.0,514.0,4426.0,291.0,9292.0,9681625.0,728.0,0.0,-11901.0,4537.0,-4215.0,9404.0,-6145.0,11108.0,-9347.0,4461.0,63.0
97871903442.0,285.0,-4006.0,-840.0,31.0,1.0,11.0,-401.0,630.0,513.0,4426.0,290.0,9288.0,9681625.0,728.0,0.0,-11897.0,4537.0,-4216.0,9408.0,-6142.0,11106.0,-9350.0,4463.0,63.0
97871923461.0,295.0,-3954.0,-838.0,40.0,-14.0,8.0,-405.0,626.0,514.0,4424.0,290.0,9284.0,9681625.0,728.0,0.0,-11893.0,4535.0,-4217.0,9413.0,-6141.0,11102.0,-9353.0,4467.0,63.0
97871943481.0,248.0,-4076.0,-846.0,62.0,-26.0,0.0,-399.0,629.0,516.0,4419.0,289.0,9278.0,9681640.0,728.0,0.0,-11889.0,4531.0,-4216.0,9422.0,-6140.0,11096.0,-9358.0,4474.0,63.0
97871963500.0,285.0,-4017.0,-913.0,63.0,-23.0,10.0,-397.0,627.0,513.0,4411.0,288.0,9273.0,9681640.0,728.0,0.0,-11887.0,4522.0,-4211.0,9431.0,-6140.0,11089.0,-9363.0,4481.0,63.0
97871983520.0,188.0,-4004.0,-849.0,59.0,-15.0,8.0,-390.0,626.0,513.0,4406.0,285.0,9266.0,9681640.0,728.0,0.0,-11881.0,4519.0,-4210.0,9440.0,-6137.0,11084.0,-9367.0,4489.0,63.0
97872003540.0,257.0,-3977.0,-788.0,56.0,1.0,14.0,-397.0,629.0,514.0,4409.0,284.0,9260.0,9681640.0,728.0,0.0,-11872.0,4523.0,-4216.0,9446.0,-6133.0,11077.0,-9375.0,4494.0,63.0
97872023559.0,227.0,-4047.0,-821.0,42.0,6.0,9.0,-398.0,630.0,514.0,4408.0,283.0,9254.0,9681685.0,728.0,0.0,-11866.0,4524.0,-4217.0,9452.0,-6129.0,11074.0,-9379.0,4497.0,63.0
97872043579.0,276.0,-4027.0,-781.0,26.0,-2.0,0.0,-397.0,630.0,514.0,4408.0,283.0,9250.0,9681685.0,728.0,0.0,-11863.0,4522.0,-4220.0,9456.0,-6128.0,11071.0,-9384.0,4499.0,63.0
97872063598.0,261.0,-4040.0,-797.0,18.0,-15.0,4.0,-401.0,631.0,514.0,4406.0,283.0,9248.0,9681685.0,728.0,0.0,-11861.0,4520.0,-4219.0,9459.0,-6128.0,11068.0,-9385.0,4502.0,63.0
97872083618.0,266.0,-3992.0,-779.0,-4.0,-31.0,4.0,-401.0,631.0,510.0,4402.0,282.0,9248.0,9681685.0,728.0,0.0,-11862.0,4517.0,-4216.0,9461.0,-6130.0,11067.0,-9384.0,4506.0,63.0
97872103637.0,270.0,-4057.0,-767.0,-13.0,-47.0,2.0,-404.0,629.0,511.0,4396.0,281.0,9249.0,9681670.0,728.0,0.0,-11864.0,4513.0,-4210.0,9463.0,-6134.0,11066.0,-9380.0,4510.0,63.0
97872123657.0,269.0,-4040.0,-789.0,-6.0,-61.0,-6.0,-402.0,628.0,510.0,4389.0,281.0,9250.0,9681670.0,728.0,0.0,-11868.0,4507.0,-4203.0,9464.0,-6142.0,11064.0,-9375.0,4516.0,63.0
97872143676.0,248.0,-4046.0,-794.0,0.0,-71.0,-26.0,-399.0,628.0,509.0,4378.0,281.0,9251.0,9681670.0,728.0,0.0,-11875.0,4494.0,-4192.0,9467.0,-6151.0,11059.0,-9371.0,4522.0,63.0
97872163696.0,250.0,-4008.0,-805.0,-1.0,-74.0,-34.0,-398.0,627.0,506.0,4374.0,283.0,9253.0,9681670.0,728.0,0.0,-11879.0,4486.0,-4188.0,9467.0,-6163.0,11054.0,-9368.0,4527.0,63.0
97872183715.0,246.0,-3901.0,-764.0,14.0,-75.0,-20.0,-401.0,626.0,509.0,4369.0,284.0,9253.0,9681650.0,728.0,0.0,-11882.0,4478.0,-4183.0,9469.0,-6173.0,11047.0,-9365.0,4534.0,63.0
97872203735.0,232.0,-4024.0,-824.0,34.0,-78.0,-10.0,-407.0,628.0,510.0,4368.0,283.0,9251.0,9681650.0,728.0,0.0,-11880.0,4479.0,-4184.0,9472.0,-6180.0,11040.0,-9364.0,4544.0,63.0
97872223754.0,246.0,-3911.0,-821.0,16.0,-75.0,22.0,-404.0,627.0,509.0,4357.0,280.0,9250.0,9681650.0,728.0,0.0,-11881.0,4473.0,-4174.0,9477.0,-6186.0,11035.0,-9360.0,4555.0,63.0
97872243774.0,238.0,-4032.0,-826.0,29.0,-73.0,32.0,-403.0,625.0,511.0,4339.0,274.0,9248.0,9681650.0,728.0,0.0,-11882.0,4465.0,-4158.0,9486.0,-6188.0,11031.0,-9357.0,4569.0,63.0
97872263793.0,241.0,-3945.0,-840.0,25.0,-69.0,31.0,-399.0,624.0,506.0,4330.0,269.0,9247.0,9681832.0,728.0,0.0,-11881.0,4466.0,-4151.0,9491.0,-6191.0,11028.0,-9353.0,4581.0,63.0
97872283813.0,245.0,-3990.0,-832.0,34.0,-69.0,43.0,-396.0,627.0,509.0,4308.0,263.0,9245.0,9681832.0,728.0,0.0,-11883.0,4454.0,-4133.0,9502.0,-6191.0,11024.0,-9350.0,4595.0,63.0
97872303833.0,214.0,-3965.0,-823.0,44.0,-72.0,40.0,-398.0,629.0,511.0,4296.0,257.0,9241.0,9681832.0,728.0,0.0,-11879.0,4455.0,-4123.0,9510.0,-6192.0,11020.0,-9348.0,4611.0,63.0
97872323852.0,206.0,-4009.0,-836.0,58.0,-65.0,47.0,-395.0,632.0,512.0,4275.0,250.0,9236.0,9681832.0,728.0,0.0,-11877.0,4446.0,-4107.0,9524.0,-6190.0,11014.0,-9347.0,4626.0,63.0
97872343872.0,189.0,-4009.0,-823.0,64.0,-57.0,45.0,-394.0,636.0,514.0,4260.0,243.0,9230.0,9681781.0,728.0,0.0,-11872.0,4443.0,-4096.0,9536.0,-6188.0,11008.0,-9348.0,4642.0,63.0
97872363891.0,177.0,-4036.0,-811.0,74.0,-46.0,43.0,-397.0,633.0,513.0,4254.0,236.0,9223.0,9681781.0,728.0,0.0,-11862.0,4449.0,-4094.0,9546.0,-6183.0,11002.0,-9351.0,4658.0,63.0
97872383911.0,177.0,-4027.0,-792.0,76.0,-35.0,34.0,-395.0,632.0,509.0,4250.0,231.0,9216.0,9681781.0,728.0,0.0,-11853.0,4454.0,-4094.0,9556.0,-6179.0,10995.0,-9355.0,4671.0,63.0
97872403930.0,177.0,-4021.0,-776.0,79.0,-28.0,38.0,-394.0,633.0,510.0,4241.0,226.0,9207.0,9681781.0,728.0,0.0,-11844.0,4453.0,-4090.0,9569.0,-6174.0,10988.0,-9360.0,4683.0,63.0
97872423950.0,159.0,-4037.0,-759.0,80.0,-24.0,45.0,-392.0,632.0,513.0,4223.0,220.0,9199.0,9681813.0,728.0,0.0,-11839.0,4444.0,-4078.0,9585.0,-6167.0,10982.0,-9366.0,4696.0,63.0
97872443969.0,160.0,-4024.0,-747.0,76.0,-20.0,49.0,-389.0,637.0,513.0,4209.0,214.0,9191.0,9681813.0,728.0,0.0,-11832.0,4440.0,-4069.0,9599.0,-6160.0,10976.0,-9371.0,4709.0,63.0
97872463989.0,155.0,-4041.0,-744.0,70.0,-17.0,51.0,-392.0,635.0,508.0,4216.0,208.0,9183.0,9681813.0,728.0,0.0,-11816.0,4460.0,-4079.0,9605.0,-6152.0,10972.0,-9375.0,4721.0,63.0
97872484008.0,157.0,-4046.0,-719.0,58.0,-14.0,46.0,-390.0,638.0,508.0,4208.0,202.0,9177.0,9681813.0,728.0,0.0,-11809.0,4462.0,-4075.0,9615.0,-6144.0,10967.0,-9379.0,4732.0,63.0
97872504028.0,156.0,-4037.0,-708.0,51.0,-13.0,43.0,-387.0,642.0,507.0,4198.0,197.0,9171.0,9681766.0,728.0,0.0,-11803.0,4461.0,-4068.0,9625.0,-6138.0,10964.0,-9383.0,4742.0,63.0
97872524047.0,151.0,-4049.0,-715.0,45.0,-14.0,36.0,-390.0,643.0,506.0,4201.0,192.0,9167.0,9681766.0,728.0,0.0,-11793.0,4474.0,-4073.0,9629.0,-6132.0,10961.0,-9385.0,4750.0,63.0
97872544067.0,154.0,-4041.0,-717.0,44.0,-18.0,35.0,-391.0,644.0,503.0,4195.0,188.0,9162.0,9681766.0,728.0,0.0,-11788.0,4475.0,-4069.0,9637.0,-6127.0,10959.0,-9387.0,4759.0,63.0
97872564086.0,149.0,-4046.0,-716.0,39.0,-19.0,28.0,-385.0,641.0,502.0,4188.0,184.0,9157.0,9681766.0,728.0,0.0,-11783.0,4475.0,-4066.0,9645.0,-6124.0,10956.0,-9389.0,4767.0,63.0
97872584106.0,151.0,-4034.0,-725.0,36.0,-16.0,31.0,-385.0,639.0,503.0,4183.0,181.0,9153.0,9681700.0,728.0,0.0,-11778.0,4475.0,-4063.0,9652.0,-6120.0,10953.0,-9390.0,4775.0,63.0
97872604125.0,167.0,-4030.0,-722.0,37.0,-16.0,33.0,-382.0,640.0,507.0,4177.0,177.0,9149.0,9681700.0,728.0,0.0,-11774.0,4475.0,-4059.0,9658.0,-6116.0,10951.0,-9392.0,4782.0,63.0
97872624145.0,169.0,-4006.0,-742.0,37.0,-18.0,34.0,-377.0,642.0,506.0,4171.0,173.0,9145.0,9681700.0,728.0,0.0,-11769.0,4476.0,-4056.0,9665.0,-6113.0,10949.0,-9393.0,4789.0,63.0
97872644165.0,187.0,-4052.0,-754.0,45.0,-24.0,45.0,-376.0,644.0,509.0,4163.0,169.0,9140.0,9681700.0,728.0,0.0,-11764.0,4476.0,-4051.0,9673.0,-6109.0,10946.0,-9394.0,4798.0,63.0
97872664184.0,200.0,-4073.0,-778.0,51.0,-30.0,44.0,-375.0,644.0,508.0,4148.0,164.0,9136.0,9681802.0,728.0,0.0,-11762.0,4470.0,-4038.0,9683.0,-6105.0,10943.0,-9395.0,4809.0,63.0
97872684204.0,212.0,-4065.0,-797.0,53.0,-36.0,45.0,-379.0,643.0,506.0,4145.0,158.0,9131.0,9681802.0,728.0,0.0,-11755.0,4477.0,-4038.0,9689.0,-6101.0,10939.0,-9396.0,4820.0,63.0
97872704223.0,233.0,-4050.0,-819.0,56.0,-43.0,53.0,-379.0,641.0,506.0,4131.0,153.0,9127.0,9681802.0,728.0,0.0,-11751.0,4473.0,-4027.0,9700.0,-6098.0,10935.0,-9397.0,4832.0,63.0
97872724243.0,265.0,-4013.0,-880.0,62.0,-45.0,69.0,-380.0,643.0,506.0,4120.0,145.0,9122.0,9681802.0,728.0,0.0,-11746.0,4476.0,-4019.0,9709.0,-6093.0,10932.0,-9396.0,4846.0,63.0
97872744262.0,309.0,-4037.0,-945.0,70.0,-47.0,79.0,-381.0,647.0,502.0,4117.0,137.0,9117.0,9681732.0,728.0,0.0,-11735.0,4490.0,-4019.0,9715.0,-6087.0,10928.0,-9396.0,4861.0,63.0
97872764282.0,407.0,-4042.0,-1033.0,98.0,-34.0,88.0,-373.0,646.0,507.0,4072.0,124.0,9107.0,9681732.0,728.0,0.0,-11733.0,4467.0,-3982.0,9744.0,-6075.0,10922.0,-9399.0,4885.0,63.0
97872784301.0,484.0,-3971.0,-1080.0,109.0,-31.0,99.0,-369.0,647.0,501.0,4060.0,115.0,9098.0,9681732.0,728.0,0.0,-11722.0,4471.0,-3975.0,9758.0,-6065.0,10917.0,-9403.0,4901.0,63.0
97872804321.0,531.0,-3967.0,-1093.0,124.0,-37.0,125.0,-370.0,650.0,500.0,4048.0,104.0,9088.0,9681732.0,728.0,0.0,-11707.0,4480.0,-3969.0,9774.0,-6052.0,10911.0,-9408.0,4921.0,63.0
97872824340.0,552.0,-3942.0,-1068.0,141.0,-51.0,151.0,-366.0,648.0,503.0,4012.0,89.0,9075.0,9681852.0,728.0,0.0,-11698.0,4468.0,-3941.0,9801.0,-6036.0,10905.0,-9412.0,4946.0,63.0
97872844360.0,564.0,-3882.0,-1043.0,166.0,-86.0,195.0,-359.0,649.0,499.0,3976.0,70.0,9060.0,9681852.0,728.0,0.0,-11682.0,4467.0,-3915.0,9831.0,-6017.0,10897.0,-9416.0,4980.0,63.0
97872864379.0,540.0,-3979.0,-1085.0,182.0,-124.0,225.0,-357.0,655.0,501.0,3930.0,46.0,9043.0,9681852.0,728.0,0.0,-11665.0,4465.0,-3879.0,9867.0,-5997.0,10888.0,-9416.0,5023.0,63.0
97872884399.0,477.0,-3980.0,-1060.0,182.0,-156.0,217.0,-354.0,656.0,497.0,3887.0,21.0,9026.0,9681852.0,728.0,0.0,-11644.0,4468.0,-3847.0,9902.0,-5979.0,10877.0,-9415.0,5071.0,63.0
97872904418.0,433.0,-3991.0,-1010.0,182.0,-195.0,222.0,-351.0,663.0,502.0,3827.0,-4.0,9008.0,9681847.0,728.0,0.0,-11631.0,4453.0,-3798.0,9944.0,-5965.0,10863.0,-9411.0,5123.0,63.0
97872924438.0,318.0,-4021.0,-990.0,191.0,-226.0,222.0,-346.0,667.0,498.0,3772.0,-32.0,8989.0,9681847.0,728.0,0.0,-11612.0,4449.0,-3754.0,9984.0,-5952.0,10848.0,-9405.0,5180.0,63.0
97872944458.0,206.0,-3970.0,-955.0,204.0,-244.0,210.0,-338.0,668.0,495.0,3706.0,-59.0,8969.0,9681847.0,728.0,0.0,-11597.0,4431.0,-3700.0,10030.0,-5942.0,10830.0,-9400.0,5241.0,63.0
97872964477.0,81.0,-3944.0,-894.0,221.0,-237.0,208.0,-331.0,672.0,493.0,3645.0,-86.0,8946.0,9681847.0,728.0,0.0,-11578.0,4416.0,-3651.0,10076.0,-5930.0,10809.0,-9396.0,5302.0,63.0
97872984497.0,-24.0,-4064.0,-838.0,229.0,-208.0,195.0,-325.0,680.0,491.0,3590.0,-112.0,8922.0,9681702.0,728.0,0.0,-11555.0,4406.0,-3608.0,10122.0,-5916.0,10788.0,-9396.0,5362.0,63.0
97873004516.0,-104.0,-3919.0,-643.0,238.0,-172.0,174.0,-320.0,684.0,487.0,3546.0,-136.0,8896.0,9681702.0,728.0,0.0,-11528.0,4400.0,-3577.0,10167.0,-5899.0,10765.0,-9401.0,5416.0,63.0
97873024536.0,-163.0,-3797.0,-560.0,271.0,-140.0,196.0,-313.0,689.0,483.0,3502.0,-160.0,8867.0,9681702.0,728.0,0.0,-11498.0,4395.0,-3545.0,10214.0,-5876.0,10743.0,-9411.0,5469.0,63.0
97873044555.0,-245.0,-3798.0,-445.0,325.0,-114.0,219.0,-310.0,689.0,481.0,3462.0,-186.0,8832.0,9681702.0,728.0,0.0,-11458.0,4397.0,-3520.0,10266.0,-5844.0,10718.0,-9426.0,5525.0,63.0
97873064575.0,-312.0,-3862.0,-338.0,371.0,-91.0,249.0,-302.0,689.0,479.0,3412.0,-216.0,8791.0,9681828.0,728.0,0.0,-11414.0,4391.0,-3487.0,10329.0,-5803.0,10690.0,-9447.0,5585.0,63.0
97873084594.0,-340.0,-4036.0,-291.0,371.0,-70.0,277.0,-296.0,690.0,473.0,3370.0,-248.0,8749.0,9681828.0,728.0,0.0,-11364.0,4400.0,-3461.0,10389.0,-5756.0,10665.0,-9469.0,5645.0,63.0
97873104614.0,-382.0,-4110.0,-220.0,354.0,-53.0,261.0,-287.0,689.0,467.0,3322.0,-279.0,8708.0,9681828.0,728.0,0.0,-11318.0,4401.0,-3428.0,10450.0,-5709.0,10641.0,-9491.0,5702.0,63.0
97873124633.0,-411.0,-4164.0,-178.0,319.0,-33.0,238.0,-286.0,696.0,464.0,3294.0,-307.0,8671.0,9681828.0,728.0,0.0,-11268.0,4418.0,-3414.0,10500.0,-5664.0,10619.0,-9511.0,5753.0,63.0
97873144653.0,-442.0,-4224.0,-136.0,270.0,-9.0,198.0,-278.0,701.0,459.0,3257.0,-332.0,8639.0,9681888.0,728.0,0.0,-11231.0,4420.0,-3389.0,10547.0,-5623.0,10602.0,-9529.0,5795.0,63.0
97873164672.0,-471.0,-4181.0,-91.0,222.0,8.0,138.0,-276.0,703.0,456.0,3241.0,-350.0,8612.0,9681888.0,728.0,0.0,-11196.0,4431.0,-3382.0,10582.0,-5589.0,10587.0,-9547.0,5826.0,63.0
97873184692.0,-482.0,-4089.0,-51.0,184.0,20.0,108.0,-273.0,708.0,450.0,3232.0,-364.0,8590.0,9681888.0,728.0,0.0,-11167.0,4442.0,-3381.0,10609.0,-5561.0,10574.0,-9563.0,5849.0,63.0
97873204711.0,-500.0,-4001.0,-15.0,161.0,35.0,89.0,-268.0,713.0,448.0,3216.0,-375.0,8571.0,9681888.0,728.0,0.0,-11145.0,4442.0,-3371.0,10635.0,-5535.0,10565.0,-9578.0,5867.0,63.0
97873224731.0,-516.0,-3846.0,68.0,153.0,43.0,71.0,-258.0,711.0,438.0,3202.0,-385.0,8553.0,9681661.0,728.0,0.0,-11125.0,4440.0,-3364.0,10659.0,-5510.0,10555.0,-9594.0,5881.0,63.0
97873244750.0,-551.0,-3857.0,150.0,158.0,50.0,76.0,-253.0,711.0,437.0,3183.0,-394.0,8534.0,9681661.0,728.0,0.0,-11106.0,4433.0,-3351.0,10685.0,-5485.0,10545.0,-9611.0,5895.0,63.0
97873264770.0,-585.0,-3944.0,215.0,164.0,70.0,67.0,-256.0,717.0,434.0,3189.0,-403.0,8515.0,9681661.0,728.0,0.0,-11077.0,4450.0,-3364.0,10705.0,-5457.0,10535.0,-9630.0,5908.0,63.0
97873284790.0,-579.0,-3973.0,286.0,163.0,78.0,62.0,-258.0,719.0,429.0,3198.0,-411.0,8495.0,9681661.0,728.0,0.0,-11047.0,4468.0,-3380.0,10723.0,-5429.0,10524.0,-9651.0,5918.0,63.0
97873304809.0,-585.0,-3941.0,309.0,166.0,58.0,86.0,-251.0,722.0,425.0,3185.0,-421.0,8476.0,9681726.0,728.0,0.0,-11024.0,4467.0,-3373.0,10749.0,-5402.0,10514.0,-9670.0,5931.0,63.0
97873324829.0,-626.0,-4022.0,345.0,165.0,39.0,103.0,-248.0,722.0,424.0,3165.0,-434.0,8456.0,9681726.0,728.0,0.0,-11002.0,4464.0,-3359.0,10777.0,-5372.0,10504.0,-9686.0,5949.0,63.0
97873344848.0,-658.0,-3999.0,378.0,147.0,15.0,108.0,-245.0,724.0,417.0,3155.0,-447.0,8437.0,9681726.0,728.0,0.0,-10976.0,4474.0,-3355.0,10801.0,-5346.0,10494.0,-9699.0,5970.0,63.0
97873364868.0,-707.0,-4100.0,395.0,132.0,0.0,120.0,-245.0,725.0,413.0,3142.0,-462.0,8420.0,9681726.0,728.0,0.0,-10951.0,4486.0,-3348.0,10823.0,-5320.0,10485.0,-9708.0,5993.0,63.0
97873384887.0,-718.0,-4046.0,427.0,114.0,-16.0,104.0,-242.0,726.0,408.0,3127.0,-476.0,8404.0,9681792.0,728.0,0.0,-10930.0,4494.0,-3338.0,10845.0,-5299.0,10477.0,-9715.0,6016.0,63.0
97873404907.0,-726.0,-4027.0,414.0,107.0,-33.0,91.0,-245.0,728.0,412.0,3108.0,-489.0,8390.0,9681792.0,728.0,0.0,-10913.0,4493.0,-3322.0,10866.0,-5282.0,10467.0,-9720.0,6038.0,63.0
97873424926.0,-739.0,-4021.0,418.0,116.0,-48.0,104.0,-241.0,730.0,405.0,3093.0,-502.0,8375.0,9681792.0,728.0,0.0,-10893.0,4499.0,-3312.0,10887.0,-5265.0,10457.0,-9725.0,6063.0,63.0
97873444946.0,-785.0,-4125.0,399.0,114.0,-61.0,105.0,-240.0,731.0,402.0,3074.0,-516.0,8360.0,9681792.0,728.0,0.0,-10874.0,4503.0,-3298.0,10909.0,-5249.0,10446.0,-9729.0,6090.0,63.0
97873464965.0,-798.0,-4172.0,333.0,84.0,-70.0,106.0,-235.0,731.0,400.0,3046.0,-530.0,8348.0,9681711.0,728.0,0.0,-10862.0,4498.0,-3273.0,10931.0,-5235.0,10437.0,-9729.0,6116.0,63.0
97873484985.0,-796.0,-4242.0,286.0,39.0,-69.0,104.0,-236.0,730.0,399.0,3027.0,-544.0,8341.0,9681711.0,728.0,0.0,-10851.0,4504.0,-3255.0,10945.0,-5225.0,10433.0,-9724.0,6140.0,63.0
97873505004.0,-789.0,-4265.0,265.0,-9.0,-65.0,66.0,-232.0,735.0,397.0,3009.0,-554.0,8339.0,9681711.0,728.0,0.0,-10847.0,4506.0,-3237.0,10952.0,-5221.0,10432.0,-9716.0,6158.0,63.0
97873525024.0,-782.0,-4205.0,289.0,-24.0,-74.0,50.0,-233.0,738.0,396.0,2999.0,-562.0,8339.0,9681711.0,728.0,0.0,-10845.0,4512.0,-3226.0,10955.0,-5222.0,10432.0,-9707.0,6172.0,63.0
97873545043.0,-804.0,-4295.0,238.0,-38.0,-90.0,47.0,-229.0,736.0,398.0,2972.0,-569.0,8341.0,9681736.0,728.0,0.0,-10852.0,4501.0,-3198.0,10961.0,-5225.0,10432.0,-9695.0,6188.0,63.0
97873565063.0,-791.0,-4216.0,183.0,-69.0,-104.0,21.0,-230.0,740.0,397.0,2961.0,-574.0,8346.0,9681736.0,728.0,0.0,-10858.0,4502.0,-3184.0,10959.0,-5235.0,10433.0,-9680.0,6200.0,63.0
97873585083.0,-749.0,-4245.0,89.0,-95.0,-108.0,-1.0,-223.0,739.0,398.0,2932.0,-577.0,8355.0,9681736.0,728.0,0.0,-10877.0,4481.0,-3152.0,10958.0,-5250.0,10436.0,-9663.0,6209.0,63.0
97873605102.0,-696.0,-4224.0,51.0,-105.0,-98.0,-39.0,-222.0,741.0,407.0,2908.0,-575.0,8365.0,9681736.0,728.0,0.0,-10900.0,4456.0,-3124.0,10954.0,-5270.0,10439.0,-9648.0,6212.0,63.0
97873625122.0,-656.0,-4186.0,22.0,-91.0,-76.0,-83.0,-221.0,744.0,407.0,2903.0,-568.0,8375.0,9681736.0,728.0,0.0,-10917.0,4440.0,-3116.0,10945.0,-5291.0,10439.0,-9637.0,6209.0,63.0
97873645141.0,-610.0,-4115.0,59.0,-70.0,-52.0,-109.0,-219.0,741.0,409.0,2898.0,-557.0,8382.0,9681736.0,728.0,0.0,-10936.0,4416.0,-3108.0,10939.0,-5313.0,10437.0,-9633.0,6202.0,63.0
97873665161.0,-557.0,-4027.0,86.0,-45.0,-41.0,-95.0,-222.0,741.0,408.0,2910.0,-547.0,8387.0,9681736.0,728.0,0.0,-10944.0,4408.0,-3119.0,10931.0,-5331.0,10432.0,-9632.0,6195.0,63.0
97873685180.0,-525.0,-4054.0,77.0,-32.0,-47.0,-75.0,-220.0,737.0,411.0,2901.0,-538.0,8389.0,9681736.0,728.0,0.0,-10957.0,4383.0,-3109.0,10930.0,-5346.0,10428.0,-9632.0,6191.0,63.0
97873705200.0,-486.0,-4132.0,31.0,-41.0,-53.0,-49.0,-224.0,735.0,408.0,2913.0,-532.0,8393.0,9681787.0,728.0,0.0,-10961.0,4384.0,-3120.0,10923.0,-5360.0,10424.0,-9628.0,6189.0,63.0
97873725219.0,-478.0,-4214.0,-21.0,-65.0,-55.0,-52.0,-227.0,735.0,405.0,2926.0,-527.0,8399.0,9681787.0,728.0,0.0,-10966.0,4390.0,-3132.0,10912.0,-5374.0,10424.0,-9622.0,6187.0,63.0
97873745239.0,-463.0,-4263.0,-83.0,-103.0,-39.0,-80.0,-228.0,733.0,402.0,2938.0,-520.0,8410.0,9681787.0,728.0,0.0,-10978.0,4390.0,-3141.0,10897.0,-5393.0,10427.0,-9613.0,6179.0,63.0
97873765258.0,-434.0,-4212.0,-120.0,-142.0,-12.0,-118.0,-232.0,735.0,402.0,2962.0,-508.0,8425.0,9681787.0,728.0,0.0,-10993.0,4397.0,-3161.0,10873.0,-5416.0,10434.0,-9604.0,6162.0,63.0
97873785278.0,-391.0,-4116.0,-97.0,-160.0,13.0,-147.0,-233.0,732.0,404.0,2982.0,-492.0,8442.0,9681555.0,728.0,0.0,-11016.0,4392.0,-3176.0,10848.0,-5441.0,10442.0,-9597.0,6138.0,63.0
97873805297.0,-341.0,-4092.0,-129.0,-162.0,22.0,-148.0,-233.0,731.0,409.0,2996.0,-475.0,8461.0,9681555.0,728.0,0.0,-11043.0,4377.0,-3184.0,10824.0,-5467.0,10451.0,-9590.0,6110.0,63.0
97873825317.0,-258.0,-4098.0,-198.0,-155.0,17.0,-125.0,-233.0,729.0,416.0,3003.0,-459.0,8480.0,9681555.0,728.0,0.0,-11072.0,4359.0,-3186.0,10801.0,-5491.0,10460.0,-9582.0,6084.0,63.0
97873845336.0,-191.0,-4121.0,-257.0,-157.0,17.0,-111.0,-238.0,729.0,421.0,3020.0,-445.0,8498.0,9681555.0,728.0,0.0,-11095.0,4355.0,-3198.0,10775.0,-5514.0,10471.0,-9573.0,6060.0,63.0
97873865356.0,-122.0,-4034.0,-262.0,-170.0,12.0,-123.0,-240.0,728.0,427.0,3030.0,-431.0,8518.0,9681781.0,728.0,0.0,-11123.0,4342.0,-3201.0,10751.0,-5538.0,10482.0,-9563.0,6035.0,63.0
97873885375.0,-91.0,-4012.0,-308.0,-171.0,-3.0,-115.0,-243.0,727.0,429.0,3046.0,-416.0,8538.0,9681781.0,728.0,0.0,-11148.0,4336.0,-3211.0,10724.0,-5564.0,10492.0,-9552.0,6011.0,63.0
97873905395.0,-83.0,-4035.0,-371.0,-174.0,-20.0,-93.0,-245.0,726.0,433.0,3053.0,-404.0,8559.0,9681781.0,728.0,0.0,-11176.0,4327.0,-3211.0,10699.0,-5590.0,10503.0,-9537.0,5990.0,63.0
97873925415.0,-95.0,-4014.0,-437.0,-185.0,-41.0,-79.0,-249.0,726.0,438.0,3059.0,-395.0,8580.0,9681781.0,728.0,0.0,-11203.0,4321.0,-3210.0,10674.0,-5616.0,10515.0,-9519.0,5974.0,63.0
97873945434.0,-131.0,-3963.0,-454.0,-193.0,-63.0,-58.0,-253.0,723.0,441.0,3064.0,-388.0,8603.0,9681762.0,728.0,0.0,-11229.0,4320.0,-3207.0,10648.0,-5642.0,10528.0,-9497.0,5961.0,63.0
97873965454.0,-148.0,-4075.0,-527.0,-189.0,-71.0,-36.0,-253.0,720.0,447.0,3053.0,-383.0,8625.0,9681762.0,728.0,0.0,-11260.0,4307.0,-3189.0,10626.0,-5667.0,10542.0,-9473.0,5952.0,63.0
97873985473.0,-201.0,-4148.0,-582.0,-197.0,-49.0,-51.0,-255.0,717.0,454.0,3044.0,-379.0,8649.0,9681762.0,728.0,0.0,-11289.0,4298.0,-3173.0,10603.0,-5691.0,10557.0,-9449.0,5941.0,63.0
97874005493.0,-185.0,-4164.0,-628.0,-209.0,-12.0,-82.0,-256.0,714.0,453.0,3055.0,-371.0,8674.0,9681762.0,728.0,0.0,-11316.0,4301.0,-3175.0,10572.0,-5716.0,10573.0,-9427.0,5922.0,63.0
97874025512.0,-153.0,-4196.0,-653.0,-216.0,32.0,-120.0,-259.0,708.0,455.0,3074.0,-357.0,8699.0,9681862.0,728.0,0.0,-11345.0,4303.0,-3185.0,10537.0,-5742.0,10590.0,-9410.0,5893.0,63.0
97874045532.0,-129.0,-4131.0,-621.0,-225.0,74.0,-159.0,-263.0,708.0,457.0,3108.0,-339.0,8726.0,9681862.0,728.0,0.0,-11372.0,4310.0,-3210.0,10497.0,-5767.0,10608.0,-9398.0,5856.0,63.0
97874065551.0,-88.0,-4092.0,-623.0,-223.0,89.0,-166.0,-265.0,704.0,456.0,3147.0,-319.0,8753.0,9681813.0,728.0,0.0,-11399.0,4318.0,-3240.0,10456.0,-5793.0,10626.0,-9388.0,5814.0,63.0
97874085571.0,-39.0,-4041.0,-597.0,-204.0,75.0,-145.0,-267.0,702.0,463.0,3171.0,-300.0,8778.0,9681813.0,728.0,0.0,-11430.0,4312.0,-3255.0,10420.0,-5816.0,10643.0,-9378.0,5775.0,63.0
97874105590.0,-30.0,-3991.0,-574.0,-185.0,52.0,-140.0,-270.0,702.0,464.0,3202.0,-283.0,8800.0,9681813.0,728.0,0.0,-11453.0,4318.0,-3278.0,10385.0,-5839.0,10656.0,-9369.0,5742.0,63.0
97874125610.0,-24.0,-4010.0,-590.0,-148.0,28.0,-139.0,-276.0,699.0,468.0,3232.0,-267.0,8819.0,9681813.0,728.0,0.0,-11473.0,4320.0,-3300.0,10355.0,-5863.0,10666.0,-9361.0,5713.0,63.0
97874145629.0,-44.0,-4006.0,-583.0,-113.0,9.0,-151.0,-277.0,696.0,468.0,3256.0,-250.0,8834.0,9681768.0,728.0,0.0,-11492.0,4315.0,-3318.0,10331.0,-5886.0,10670.0,-9357.0,5688.0,63.0
97874165649.0,-50.0,-4023.0,-592.0,-77.0,-13.0,-134.0,-278.0,693.0,472.0,3269.0,-234.0,8845.0,9681768.0,728.0,0.0,-11510.0,4298.0,-3327.0,10315.0,-5909.0,10670.0,-9354.0,5669.0,63.0
97874185668.0,-53.0,-4180.0,-645.0,-58.0,-17.0,-134.0,-282.0,694.0,472.0,3292.0,-220.0,8853.0,9681768.0,728.0,0.0,-11520.0,4294.0,-3347.0,10298.0,-5931.0,10668.0,-9353.0,5653.0,63.0
97874205688.0,-46.0,-4240.0,-709.0,-77.0,10.0,-200.0,-284.0,695.0,470.0,3325.0,-199.0,8863.0,9681768.0,728.0,0.0,-11533.0,4289.0,-3376.0,10276.0,-5956.0,10664.0,-9355.0,5628.0,63.0
97874225708.0,-68.0,-4220.0,-731.0,-125.0,58.0,-260.0,-282.0,691.0,477.0,3343.0,-172.0,8877.0,9681762.0,728.0,0.0,-11563.0,4252.0,-3388.0,10254.0,-5987.0,10664.0,-9358.0,5591.0,63.0
97874245727.0,-64.0,-4176.0,-699.0,-174.0,105.0,-272.0,-288.0,690.0,480.0,3393.0,-140.0,8897.0,9681762.0,728.0,0.0,-11588.0,4243.0,-3428.0,10216.0,-6019.0,10669.0,-9361.0,5542.0,63.0
97874265747.0,-62.0,-4111.0,-668.0,-207.0,136.0,-236.0,-294.0,689.0,482.0,3445.0,-111.0,8920.0,9681762.0,728.0,0.0,-11614.0,4243.0,-3469.0,10173.0,-6047.0,10681.0,-9360.0,5490.0,63.0
97874285766.0,-21.0,-4056.0,-586.0,-214.0,158.0,-177.0,-294.0,684.0,479.0,3487.0,-87.0,8945.0,9681762.0,728.0,0.0,-11640.0,4245.0,-3501.0,10132.0,-6066.0,10699.0,-9358.0,5439.0,63.0
97874305786.0,1.0,-4052.0,-575.0,-194.0,172.0,-138.0,-299.0,682.0,487.0,3520.0,-68.0,8968.0,9681969.0,728.0,0.0,-11664.0,4246.0,-3523.0,10095.0,-6078.0,10718.0,-9354.0,5392.0,63.0
97874325805.0,30.0,-4042.0,-565.0,-169.0,189.0,-126.0,-299.0,680.0,489.0,3552.0,-51.0,8988.0,9681969.0,728.0,0.0,-11685.0,4249.0,-3546.0,10062.0,-6085.0,10738.0,-9354.0,5347.0,63.0
97874345825.0,63.0,-4016.0,-536.0,-148.0,198.0,-128.0,-302.0,676.0,493.0,3583.0,-33.0,9005.0,9681969.0,728.0,0.0,-11703.0,4250.0,-3569.0,10032.0,-6089.0,10755.0,-9357.0,5301.0,63.0
97874365844.0,87.0,-4000.0,-532.0,-131.0,197.0,-130.0,-305.0,672.0,496.0,3617.0,-15.0,9020.0,9681969.0,728.0,0.0,-11719.0,4252.0,-3595.0,10003.0,-6092.0,10771.0,-9362.0,5256.0,63.0
97874385864.0,124.0,-3980.0,-514.0,-125.0,188.0,-132.0,-311.0,671.0,492.0,3672.0,3.0,9034.0,9681581.0,728.0,0.0,-11726.0,4275.0,-3641.0,9969.0,-6096.0,10784.0,-9368.0,5213.0,63.0
97874405883.0,138.0,-3962.0,-500.0,-131.0,164.0,-134.0,-319.0,668.0,495.0,3714.0,21.0,9049.0,9681581.0,728.0,0.0,-11738.0,4285.0,-3675.0,9938.0,-6102.0,10797.0,-9373.0,5171.0,63.0
97874425903.0,170.0,-3952.0,-502.0,-141.0,122.0,-119.0,-322.0,666.0,494.0,3750.0,37.0,9064.0,9681581.0,728.0,0.0,-11752.0,4292.0,-3702.0,9908.0,-6111.0,10809.0,-9373.0,5134.0,63.0
97874445922.0,146.0,-3945.0,-536.0,-154.0,67.0,-96.0,-330.0,666.0,492.0,3790.0,50.0,9081.0,9681581.0,728.0,0.0,-11762.0,4313.0,-3732.0,9875.0,-6123.0,10822.0,-9367.0,5104.0,63.0
97874465942.0,131.0,-3948.0,-580.0,-159.0,19.0,-64.0,-334.0,661.0,495.0,3805.0,59.0,9099.0,9681521.0,728.0,0.0,-11781.0,4317.0,-3738.0,9850.0,-6138.0,10835.0,-9355.0,5083.0,63.0
97874485961.0,93.0,-3977.0,-627.0,-154.0,-16.0,-49.0,-332.0,659.0,498.0,3800.0,64.0,9117.0,9681521.0,728.0,0.0,-11804.0,4305.0,-3726.0,9831.0,-6153.0,10847.0,-9339.0,5069.0,63.0
97874505981.0,77.0,-3954.0,-661.0,-143.0,-46.0,-42.0,-337.0,657.0,498.0,3811.0,68.0,9135.0,9681521.0,728.0,0.0,-11819.0,4315.0,-3729.0,9808.0,-6170.0,10857.0,-9321.0,5059.0,63.0
97874526000.0,42.0,-3933.0,-678.0,-120.0,-67.0,-27.0,-343.0,656.0,499.0,3819.0,69.0,9150.0,9681521.0,728.0,0.0,-11831.0,4325.0,-3730.0,9788.0,-6186.0,10864.0,-9303.0,5055.0,63.0
97874546020.0,46.0,-3961.0,-743.0,-93.0,-84.0,-4.0,-343.0,652.0,500.0,3815.0,68.0,9162.0,9681818.0,728.0,0.0,-11844.0,4327.0,-3720.0,9776.0,-6201.0,10870.0,-9286.0,5056.0,63.0
97874566040.0,0.0,-4013.0,-760.0,-63.0,-81.0,-4.0,-343.0,653.0,502.0,3804.0,66.0,9171.0,9681818.0,728.0,0.0,-11854.0,4324.0,-3707.0,9769.0,-6213.0,10873.0,-9271.0,5062.0,63.0
97874586059.0,-7.0,-4049.0,-811.0,-40.0,-56.0,-18.0,-343.0,653.0,504.0,3802.0,65.0,9178.0,9681818.0,728.0,0.0,-11861.0,4326.0,-3703.0,9762.0,-6223.0,10875.0,-9261.0,5065.0,63.0
97874606079.0,-7.0,-4040.0,-774.0,-14.0,-18.0,-47.0,-341.0,653.0,504.0,3803.0,68.0,9180.0,9681818.0,728.0,0.0,-11866.0,4319.0,-3702.0,9760.0,-6231.0,10873.0,-9258.0,5063.0,63.0
97874626098.0,8.0,-4003.0,-766.0,9.0,13.0,-64.0,-342.0,653.0,508.0,3811.0,75.0,9180.0,9681708.0,728.0,0.0,-11868.0,4314.0,-3710.0,9756.0,-6238.0,10870.0,-9261.0,5057.0,63.0
97874646118.0,45.0,-4000.0,-717.0,33.0,49.0,-68.0,-345.0,655.0,512.0,3833.0,87.0,9176.0,9681708.0,728.0,0.0,-11865.0,4309.0,-3731.0,9754.0,-6242.0,10862.0,-9275.0,5043.0,63.0
97874666137.0,72.0,-4023.0,-666.0,49.0,63.0,-69.0,-345.0,653.0,510.0,3855.0,95.0,9171.0,9681708.0,728.0,0.0,-11858.0,4312.0,-3754.0,9752.0,-6241.0,10856.0,-9289.0,5032.0,63.0
97874686157.0,93.0,-4057.0,-610.0,61.0,68.0,-76.0,-350.0,649.0,511.0,3881.0,105.0,9163.0,9681708.0,728.0,0.0,-11849.0,4317.0,-3781.0,9751.0,-6239.0,10848.0,-9305.0,5022.0,63.0
97874706176.0,119.0,-4082.0,-565.0,61.0,58.0,-89.0,-354.0,650.0,514.0,3903.0,116.0,9156.0,9681713.0,728.0,0.0,-11842.0,4313.0,-3804.0,9752.0,-6240.0,10838.0,-9322.0,5010.0,63.0
97874726196.0,150.0,-4112.0,-557.0,49.0,39.0,-97.0,-357.0,649.0,513.0,3928.0,127.0,9150.0,9681713.0,728.0,0.0,-11835.0,4313.0,-3830.0,9750.0,-6243.0,10828.0,-9337.0,4999.0,63.0
97874746215.0,172.0,-4103.0,-520.0,26.0,15.0,-108.0,-354.0,647.0,513.0,3935.0,139.0,9145.0,9681713.0,728.0,0.0,-11838.0,4292.0,-3839.0,9752.0,-6251.0,10818.0,-9350.0,4989.0,63.0
97874766235.0,165.0,-4123.0,-550.0,3.0,-11.0,-125.0,-357.0,646.0,512.0,3953.0,152.0,9144.0,9681713.0,728.0,0.0,-11841.0,4282.0,-3856.0,9746.0,-6265.0,10808.0,-9357.0,4978.0,63.0
97874786254.0,185.0,-4099.0,-578.0,-14.0,-35.0,-121.0,-357.0,646.0,511.0,3965.0,165.0,9146.0,9681738.0,728.0,0.0,-11848.0,4265.0,-3866.0,9741.0,-6283.0,10799.0,-9361.0,4969.0,63.0
97874806274.0,187.0,-4123.0,-594.0,-26.0,-45.0,-134.0,-361.0,648.0,513.0,3977.0,178.0,9149.0,9681738.0,728.0,0.0,-11857.0,4249.0,-3876.0,9733.0,-6303.0,10790.0,-9363.0,4959.0,63.0
97874826293.0,193.0,-4114.0,-648.0,-39.0,-52.0,-155.0,-362.0,648.0,514.0,3986.0,194.0,9154.0,9681738.0,728.0,0.0,-11871.0,4225.0,-3882.0,9724.0,-6328.0,10781.0,-9363.0,4947.0,63.0
97874846313.0,211.0,-4047.0,-668.0,-52.0,-57.0,-154.0,-360.0,646.0,513.0,3992.0,210.0,9160.0,9681738.0,728.0,0.0,-11888.0,4197.0,-3885.0,9715.0,-6355.0,10772.0,-9361.0,4935.0,63.0
97874866333.0,233.0,-4048.0,-710.0,-61.0,-55.0,-150.0,-358.0,651.0,509.0,4005.0,225.0,9168.0,9681777.0,728.0,0.0,-11902.0,4178.0,-3893.0,9702.0,-6381.0,10765.0,-9358.0,4921.0,63.0
97874886352.0,273.0,-4145.0,-790.0,-85.0,-58.0,-162.0,-360.0,650.0,510.0,4017.0,242.0,9178.0,9681777.0,728.0,0.0,-11921.0,4156.0,-3900.0,9686.0,-6410.0,10759.0,-9353.0,4906.0,63.0
97874906372.0,289.0,-3927.0,-735.0,-136.0,-61.0,-172.0,-358.0,645.0,514.0,4017.0,259.0,9193.0,9681777.0,728.0,0.0,-11949.0,4120.0,-3893.0,9669.0,-6442.0,10757.0,-9344.0,4886.0,63.0
97874926391.0,296.0,-4058.0,-789.0,-105.0,-53.0,-170.0,-365.0,645.0,516.0,4037.0,277.0,9208.0,9681777.0,728.0,0.0,-11968.0,4107.0,-3905.0,9646.0,-6474.0,10754.0,-9335.0,4868.0,63.0
97874946411.0,308.0,-3976.0,-851.0,-134.0,-40.0,-201.0,-369.0,641.0,516.0,4060.0,297.0,9224.0,9681525.0,728.0,0.0,-11991.0,4089.0,-3919.0,9620.0,-6508.0,10752.0,-9327.0,4843.0,63.0
97874966430.0,314.0,-3948.0,-873.0,-153.0,-22.0,-182.0,-375.0,638.0,519.0,4087.0,317.0,9242.0,9681525.0,728.0,0.0,-12014.0,4078.0,-3935.0,9589.0,-6540.0,10753.0,-9316.0,4817.0,63.0
97874986450.0,383.0,-3964.0,-854.0,-159.0,-12.0,-158.0,-378.0,634.0,523.0,4106.0,336.0,9261.0,9681525.0,728.0,0.0,-12039.0,4062.0,-3944.0,9561.0,-6570.0,10756.0,-9306.0,4790.0,63.0
97875006469.0,372.0,-3938.0,-886.0,-161.0,-14.0,-146.0,-380.0,632.0,526.0,4124.0,352.0,9281.0,9681525.0,728.0,0.0,-12063.0,4050.0,-3951.0,9533.0,-6597.0,10762.0,-9293.0,4764.0,63.0
97875026489.0,407.0,-3951.0,-924.0,-155.0,-20.0,-125.0,-378.0,628.0,525.0,4137.0,366.0,9300.0,9681873.0,728.0,0.0,-12088.0,4036.0,-3954.0,9507.0,-6623.0,10768.0,-9280.0,4741.0,63.0
97875046508.0,410.0,-3907.0,-903.0,-141.0,-30.0,-96.0,-382.0,624.0,527.0,4151.0,377.0,9318.0,9681873.0,728.0,0.0,-12107.0,4031.0,-3958.0,9482.0,-6646.0,10774.0,-9266.0,4723.0,63.0
97875066528.0,394.0,-3934.0,-968.0,-138.0,-46.0,-75.0,-381.0,622.0,525.0,4161.0,384.0,9336.0,9681873.0,728.0,0.0,-12126.0,4029.0,-3959.0,9458.0,-6667.0,10781.0,-9250.0,4709.0,63.0
97875086547.0,395.0,-3957.0,-1005.0,-135.0,-46.0,-42.0,-381.0,624.0,529.0,4159.0,389.0,9353.0,9681873.0,728.0,0.0,-12147.0,4020.0,-3948.0,9440.0,-6685.0,10789.0,-9232.0,4699.0,63.0
97875106567.0,358.0,-3859.0,-945.0,-147.0,-51.0,3.0,-386.0,619.0,533.0,4159.0,389.0,9371.0,9681829.0,728.0,0.0,-12163.0,4026.0,-3941.0,9420.0,-6699.0,10800.0,-9212.0,4693.0,63.0
97875126586.0,382.0,-3955.0,-905.0,-127.0,-64.0,63.0,-386.0,619.0,535.0,4149.0,382.0,9386.0,9681829.0,728.0,0.0,-12176.0,4035.0,-3924.0,9406.0,-6706.0,10813.0,-9190.0,4695.0,63.0
97875146606.0,333.0,-3987.0,-867.0,-95.0,-74.0,62.0,-388.0,620.0,535.0,4142.0,372.0,9398.0,9681829.0,728.0,0.0,-12182.0,4053.0,-3912.0,9395.0,-6710.0,10825.0,-9170.0,4703.0,63.0
97875166625.0,321.0,-4059.0,-859.0,-69.0,-77.0,12.0,-382.0,619.0,538.0,4119.0,367.0,9407.0,9681829.0,728.0,0.0,-12195.0,4042.0,-3888.0,9393.0,-6717.0,10830.0,-9155.0,4710.0,63.0
97875186645.0,314.0,-4016.0,-866.0,-70.0,-88.0,-29.0,-384.0,616.0,538.0,4117.0,367.0,9416.0,9681738.0,728.0,0.0,-12204.0,4041.0,-3881.0,9385.0,-6732.0,10831.0,-9141.0,4713.0,63.0
97875206665.0,334.0,-4007.0,-850.0,-72.0,-100.0,-52.0,-381.0,613.0,539.0,4109.0,369.0,9425.0,9681738.0,728.0,0.0,-12217.0,4029.0,-3871.0,9377.0,-6750.0,10829.0,-9129.0,4714.0,63.0
97875226684.0,302.0,-3948.0,-866.0,-75.0,-120.0,-71.0,-375.0,610.0,544.0,4083.0,373.0,9435.0,9681738.0,728.0,0.0,-12239.0,3992.0,-3843.0,9376.0,-6773.0,10826.0,-9115.0,4716.0,63.0
97875246704.0,316.0,-3961.0,-886.0,-61.0,-127.0,-50.0,-375.0,611.0,546.0,4071.0,376.0,9444.0,9681738.0,728.0,0.0,-12254.0,3974.0,-3829.0,9370.0,-6795.0,10823.0,-9101.0,4720.0,63.0
97875266723.0,291.0,-3981.0,-926.0,-46.0,-121.0,-49.0,-378.0,608.0,546.0,4068.0,377.0,9451.0,9681642.0,728.0,0.0,-12263.0,3970.0,-3822.0,9362.0,-6815.0,10819.0,-9088.0,4726.0,63.0
97875286743.0,301.0,-3937.0,-935.0,-31.0,-108.0,-55.0,-380.0,608.0,546.0,4069.0,380.0,9457.0,9681642.0,728.0,0.0,-12270.0,3966.0,-3821.0,9355.0,-6834.0,10813.0,-9078.0,4731.0,63.0
97875306762.0,283.0,-3932.0,-988.0,-23.0,-90.0,-34.0,-379.0,607.0,550.0,4056.0,381.0,9462.0,9681642.0,728.0,0.0,-12281.0,3949.0,-3807.0,9354.0,-6849.0,10808.0,-9069.0,4736.0,63.0
97875326782.0,310.0,-3925.0,-959.0,-17.0,-64.0,-12.0,-377.0,608.0,557.0,4038.0,381.0,9466.0,9681642.0,728.0,0.0,-12291.0,3928.0,-3789.0,9357.0,-6859.0,10806.0,-9062.0,4740.0,63.0
97875346801.0,297.0,-3920.0,-1004.0,8.0,-33.0,5.0,-372.0,605.0,560.0,4032.0,380.0,9467.0,9682004.0,728.0,0.0,-12293.0,3924.0,-3783.0,9358.0,-6864.0,10804.0,-9058.0,4745.0,63.0
97875366821.0,317.0,-3908.0,-916.0,40.0,-12.0,30.0,-376.0,605.0,561.0,4027.0,378.0,9462.0,9682004.0,728.0,0.0,-12289.0,3924.0,-3781.0,9365.0,-6861.0,10801.0,-9060.0,4751.0,63.0
97875386840.0,316.0,-3970.0,-933.0,65.0,0.0,45.0,-379.0,604.0,561.0,4027.0,372.0,9456.0,9682004.0,728.0,0.0,-12279.0,3935.0,-3784.0,9372.0,-6853.0,10799.0,-9064.0,4760.0,63.0
97875406860.0,330.0,-3926.0,-929.0,78.0,5.0,47.0,-378.0,605.0,559.0,4026.0,368.0,9448.0,9682004.0,728.0,0.0,-12269.0,3944.0,-3787.0,9381.0,-6844.0,10795.0,-9070.0,4769.0,63.0
97875426879.0,328.0,-3922.0,-885.0,98.0,12.0,80.0,-373.0,606.0,563.0,4002.0,360.0,9438.0,9681824.0,728.0,0.0,-12262.0,3931.0,-3770.0,9401.0,-6830.0,10792.0,-9079.0,4782.0,63.0
97875446899.0,307.0,-3935.0,-864.0,138.0,10.0,94.0,-375.0,606.0,566.0,3990.0,350.0,9423.0,9681824.0,728.0,0.0,-12246.0,3937.0,-3766.0,9422.0,-6812.0,10787.0,-9090.0,4799.0,63.0
97875466918.0,308.0,-3922.0,-825.0,182.0,10.0,97.0,-373.0,607.0,566.0,3975.0,340.0,9404.0,9681824.0,728.0,0.0,-12226.0,3939.0,-3761.0,9449.0,-6791.0,10777.0,-9106.0,4820.0,63.0
97875486938.0,299.0,-3965.0,-809.0,208.0,8.0,99.0,-374.0,608.0,567.0,3960.0,330.0,9381.0,9681824.0,728.0,0.0,-12202.0,3942.0,-3758.0,9480.0,-6768.0,10765.0,-9125.0,4843.0,63.0
97875506958.0,315.0,-4012.0,-825.0,215.0,5.0,97.0,-374.0,608.0,563.0,3952.0,319.0,9357.0,9681636.0,728.0,0.0,-12175.0,3951.0,-3761.0,9509.0,-6746.0,10751.0,-9145.0,4867.0,63.0
97875526977.0,309.0,-4076.0,-808.0,203.0,5.0,79.0,-371.0,609.0,560.0,3936.0,310.0,9334.0,9681636.0,728.0,0.0,-12152.0,3949.0,-3757.0,9541.0,-6725.0,10737.0,-9165.0,4890.0,63.0
97875546997.0,278.0,-4054.0,-801.0,179.0,11.0,61.0,-369.0,614.0,557.0,3926.0,303.0,9314.0,9681636.0,728.0,0.0,-12131.0,3948.0,-3757.0,9567.0,-6707.0,10724.0,-9183.0,4908.0,63.0
97875567016.0,300.0,-4082.0,-762.0,158.0,12.0,64.0,-367.0,618.0,554.0,3919.0,297.0,9295.0,9681636.0,728.0,0.0,-12112.0,3951.0,-3759.0,9590.0,-6690.0,10713.0,-9200.0,4925.0,63.0
97875587036.0,288.0,-4070.0,-737.0,127.0,0.0,55.0,-365.0,618.0,548.0,3915.0,290.0,9280.0,9681587.0,728.0,0.0,-12094.0,3957.0,-3762.0,9609.0,-6676.0,10703.0,-9213.0,4940.0,63.0
97875607055.0,274.0,-4040.0,-714.0,107.0,-17.0,51.0,-366.0,622.0,545.0,3911.0,284.0,9268.0,9681587.0,728.0,0.0,-12079.0,3963.0,-3763.0,9624.0,-6665.0,10695.0,-9222.0,4954.0,63.0
97875627075.0,245.0,-4055.0,-707.0,93.0,-25.0,47.0,-368.0,622.0,547.0,3901.0,278.0,9257.0,9681587.0,728.0,0.0,-12068.0,3963.0,-3759.0,9640.0,-6656.0,10688.0,-9229.0,4970.0,63.0
97875647094.0,251.0,-4073.0,-706.0,84.0,-22.0,43.0,-369.0,624.0,544.0,3899.0,272.0,9248.0,9681587.0,728.0,0.0,-12056.0,3972.0,-3762.0,9651.0,-6649.0,10681.0,-9235.0,4983.0,63.0
97875667114.0,246.0,-4104.0,-702.0,67.0,-29.0,27.0,-367.0,622.0,537.0,3897.0,268.0,9240.0,9681723.0,728.0,0.0,-12046.0,3978.0,-3763.0,9661.0,-6644.0,10674.0,-9240.0,4995.0,63.0
97875687133.0,235.0,-4128.0,-750.0,38.0,-33.0,37.0,-366.0,624.0,531.0,3901.0,264.0,9236.0,9681723.0,728.0,0.0,-12037.0,3991.0,-3769.0,9664.0,-6641.0,10671.0,-9241.0,5005.0,63.0
97875707153.0,215.0,-4032.0,-709.0,3.0,-31.0,45.0,-364.0,627.0,534.0,3891.0,258.0,9234.0,9681723.0,728.0,0.0,-12035.0,3993.0,-3761.0,9669.0,-6638.0,10671.0,-9237.0,5014.0,63.0
97875727172.0,192.0,-4161.0,-733.0,-8.0,-18.0,18.0,-363.0,629.0,536.0,3884.0,254.0,9234.0,9681723.0,728.0,0.0,-12034.0,3994.0,-3754.0,9672.0,-6637.0,10672.0,-9233.0,5020.0,63.0
97875747192.0,213.0,-4117.0,-749.0,-27.0,-8.0,-1.0,-359.0,631.0,538.0,3883.0,254.0,9236.0,9681803.0,728.0,0.0,-12036.0,3994.0,-3752.0,9670.0,-6639.0,10674.0,-9230.0,5019.0,63.0
97875767211.0,192.0,-4090.0,-742.0,-53.0,0.0,-10.0,-360.0,629.0,537.0,3884.0,254.0,9241.0,9681803.0,728.0,0.0,-12041.0,3995.0,-3751.0,9664.0,-6643.0,10678.0,-9224.0,5016.0,63.0
97875787231.0,188.0,-3964.0,-671.0,-71.0,13.0,-11.0,-359.0,630.0,539.0,3881.0,256.0,9248.0,9681803.0,728.0,0.0,-12050.0,3991.0,-3745.0,9657.0,-6646.0,10684.0,-9218.0,5009.0,63.0
97875807250.0,193.0,-4048.0,-746.0,-1.0,17.0,18.0,-359.0,630.0,538.0,3883.0,255.0,9251.0,9681803.0,728.0,0.0,-12052.0,3994.0,-3745.0,9653.0,-6645.0,10689.0,-9216.0,5006.0,63.0
97875827362.0,156.0,-3816.0,-560.0,6.0,18.0,9.0,-353.0,630.0,535.0,3883.0,254.0,9248.0,9681626.0,728.0,0.0,-12048.0,3996.0,-3747.0,9657.0,-6641.0,10688.0,-9219.0,5008.0,63.0
97875847412.0,245.0,-4074.0,-728.0,35.0,22.0,29.0,-350.0,633.0,534.0,3883.0,252.0,9244.0,9681626.0,728.0,0.0,-12043.0,4001.0,-3749.0,9660.0,-6635.0,10689.0,-9222.0,5009.0,63.0
97875867401.0,255.0,-4089.0,-780.0,22.0,-6.0,0.0,-354.0,631.0,533.0,3883.0,252.0,9241.0,9681626.0,728.0,0.0,-12040.0,4000.0,-3750.0,9664.0,-6632.0,10687.0,-9225.0,5012.0,63.0
97875887420.0,204.0,-3885.0,-712.0,-14.0,-9.0,8.0,-356.0,633.0,532.0,3881.0,251.0,9242.0,9681626.0,728.0,0.0,-12041.0,4000.0,-3748.0,9663.0,-6633.0,10688.0,-9222.0,5012.0,63.0
97875907409.0,203.0,-4041.0,-720.0,20.0,-22.0,27.0,-355.0,632.0,532.0,3875.0,248.0,9240.0,9681950.0,728.0,0.0,-12038.0,4001.0,-3743.0,9668.0,-6631.0,10687.0,-9221.0,5019.0,63.0
97875927429.0,208.0,-4014.0,-765.0,25.0,-25.0,9.0,-352.0,630.0,533.0,3871.0,246.0,9238.0,9681950.0,728.0,0.0,-12037.0,3999.0,-3740.0,9672.0,-6631.0,10685.0,-9221.0,5024.0,63.0
97875947418.0,202.0,-4065.0,-807.0,13.0,-22.0,5.0,-354.0,633.0,531.0,3866.0,245.0,9236.0,9681950.0,728.0,0.0,-12036.0,3996.0,-3737.0,9676.0,-6632.0,10683.0,-9220.0,5029.0,63.0
97875967407.0,192.0,-4078.0,-819.0,-3.0,-12.0,1.0,-360.0,629.0,531.0,3864.0,244.0,9236.0,9681950.0,728.0,0.0,-12036.0,3995.0,-3734.0,9676.0,-6633.0,10683.0,-9218.0,5031.0,63.0
97875987426.0,212.0,-4040.0,-790.0,-13.0,6.0,-18.0,-364.0,628.0,530.0,3866.0,246.0,9237.0,9681794.0,728.0,0.0,-12038.0,3994.0,-3736.0,9675.0,-6636.0,10683.0,-9217.0,5028.0,63.0
97876007446.0,202.0,-4011.0,-795.0,-8.0,14.0,-20.0,-361.0,627.0,530.0,3870.0,248.0,9238.0,9681794.0,728.0,0.0,-12039.0,3992.0,-3739.0,9672.0,-6638.0,10684.0,-9217.0,5024.0,63.0
97876027465.0,222.0,-4010.0,-794.0,-5.0,21.0,-3.0,-360.0,626.0,533.0,3874.0,250.0,9238.0,9681794.0,728.0,0.0,-12039.0,3993.0,-3743.0,9670.0,-6637.0,10685.0,-9218.0,5020.0,63.0
97876047485.0,209.0,-3992.0,-782.0,-10.0,29.0,8.0,-355.0,627.0,533.0,3877.0,250.0,9239.0,9681794.0,728.0,0.0,-12038.0,3997.0,-3745.0,9669.0,-6634.0,10688.0,-9218.0,5017.0,63.0
97876067504.0,209.0,-3932.0,-725.0,-6.0,34.0,17.0,-356.0,627.0,532.0,3880.0,249.0,9239.0,9681845.0,728.0,0.0,-12036.0,4002.0,-3748.0,9668.0,-6629.0,10692.0,-9219.0,5015.0,63.0
97876087524.0,200.0,-4007.0,-734.0,58.0,46.0,43.0,-354.0,631.0,533.0,3882.0,246.0,9234.0,9681845.0,728.0,0.0,-12029.0,4010.0,-3751.0,9673.0,-6619.0,10693.0,-9224.0,5016.0,63.0
97876107696.0,229.0,-4085.0,-830.0,44.0,54.0,27.0,-354.0,632.0,533.0,3884.0,244.0,9229.0,9681845.0,728.0,0.0,-12022.0,4016.0,-3755.0,9677.0,-6608.0,10694.0,-9231.0,5017.0,63.0
97876127624.0,232.0,-4071.0,-750.0,25.0,54.0,19.0,-354.0,630.0,532.0,3886.0,242.0,9225.0,9681845.0,728.0,0.0,-12016.0,4021.0,-3760.0,9680.0,-6598.0,10695.0,-9238.0,5015.0,63.0
97876147888.0,236.0,-4064.0,-743.0,4.0,40.0,3.0,-353.0,633.0,535.0,3892.0,243.0,9224.0,9681497.0,728.0,0.0,-12013.0,4025.0,-3765.0,9680.0,-6593.0,10696.0,-9242.0,5011.0,63.0
97876167877.0,220.0,-3993.0,-723.0,-33.0,33.0,8.0,-348.0,635.0,531.0,3896.0,243.0,9226.0,9681497.0,728.0,0.0,-12013.0,4031.0,-3768.0,9677.0,-6590.0,10701.0,-9241.0,5006.0,63.0
97876187896.0,261.0,-4108.0,-724.0,-24.0,28.0,8.0,-348.0,635.0,533.0,3900.0,243.0,9228.0,9681497.0,728.0,0.0,-12014.0,4035.0,-3771.0,9673.0,-6588.0,10705.0,-9240.0,5002.0,63.0
97876207885.0,247.0,-4008.0,-717.0,-21.0,25.0,-8.0,-351.0,637.0,531.0,3905.0,245.0,9230.0,9681497.0,728.0,0.0,-12016.0,4038.0,-3774.0,9669.0,-6587.0,10709.0,-9240.0,4996.0,63.0
97876227752.0,248.0,-4021.0,-717.0,-10.0,23.0,-8.0,-355.0,636.0,531.0,3909.0,247.0,9231.0,9681733.0,728.0,0.0,-12016.0,4039.0,-3778.0,9666.0,-6587.0,10710.0,-9241.0,4992.0,63.0
97876247894.0,254.0,-4019.0,-740.0,-10.0,19.0,3.0,-353.0,636.0,528.0,3913.0,248.0,9231.0,9681733.0,728.0,0.0,-12016.0,4041.0,-3781.0,9664.0,-6586.0,10713.0,-9241.0,4988.0,63.0
97876267883.0,259.0,-4033.0,-737.0,-12.0,18.0,14.0,-355.0,636.0,528.0,3915.0,247.0,9232.0,9681733.0,728.0,0.0,-12016.0,4044.0,-3782.0,9663.0,-6583.0,10715.0,-9240.0,4986.0,63.0
97876287902.0,255.0,-3986.0,-731.0,-16.0,14.0,31.0,-360.0,634.0,533.0,3914.0,245.0,9233.0,9681733.0,728.0,0.0,-12015.0,4049.0,-3781.0,9661.0,-6580.0,10719.0,-9238.0,4986.0,63.0
97876307922.0,244.0,-4030.0,-752.0,-19.0,7.0,45.0,-360.0,633.0,532.0,3911.0,241.0,9235.0,9681703.0,728.0,0.0,-12015.0,4056.0,-3778.0,9661.0,-6575.0,10725.0,-9234.0,4988.0,63.0
97876327789.0,235.0,-4023.0,-754.0,-19.0,0.0,45.0,-359.0,638.0,532.0,3907.0,236.0,9237.0,9681703.0,728.0,0.0,-12015.0,4062.0,-3773.0,9660.0,-6571.0,10730.0,-9229.0,4990.0,63.0
97876347930.0,210.0,-4035.0,-763.0,-18.0,0.0,42.0,-357.0,636.0,532.0,3902.0,231.0,9239.0,9681703.0,728.0,0.0,-12014.0,4069.0,-3768.0,9660.0,-6567.0,10736.0,-9224.0,4993.0,63.0
97876367950.0,206.0,-4003.0,-779.0,-18.0,6.0,33.0,-358.0,634.0,531.0,3899.0,228.0,9241.0,9681703.0,728.0,0.0,-12014.0,4074.0,-3764.0,9659.0,-6564.0,10741.0,-9220.0,4995.0,63.0
97876387939.0,189.0,-4009.0,-775.0,-21.0,9.0,35.0,-354.0,635.0,533.0,3896.0,224.0,9242.0,9681799.0,728.0,0.0,-12014.0,4080.0,-3761.0,9658.0,-6560.0,10746.0,-9216.0,4996.0,63.0
97876407958.0,188.0,-4006.0,-763.0,-18.0,9.0,47.0,-356.0,633.0,535.0,3892.0,220.0,9244.0,9681799.0,728.0,0.0,-12014.0,4087.0,-3757.0,9657.0,-6555.0,10752.0,-9212.0,4998.0,63.0
97876427947.0,177.0,-3987.0,-741.0,-12.0,10.0,54.0,-360.0,635.0,534.0,3888.0,214.0,9245.0,9681799.0,728.0,0.0,-12012.0,4095.0,-3752.0,9658.0,-6549.0,10757.0,-9208.0,5002.0,63.0
97876447937.0,189.0,-4019.0,-720.0,0.0,8.0,57.0,-360.0,635.0,533.0,3883.0,208.0,9244.0,9681799.0,728.0,0.0,-12009.0,4103.0,-3748.0,9660.0,-6541.0,10761.0,-9206.0,5006.0,63.0
97876467956.0,178.0,-4005.0,-692.0,14.0,-5.0,61.0,-361.0,634.0,535.0,3876.0,202.0,9242.0,9681799.0,728.0,0.0,-12004.0,4110.0,-3743.0,9665.0,-6534.0,10764.0,-9204.0,5013.0,63.0
97876487945.0,157.0,-4045.0,-708.0,24.0,-23.0,61.0,-359.0,635.0,540.0,3856.0,194.0,9240.0,9681748.0,728.0,0.0,-12004.0,4105.0,-3725.0,9674.0,-6527.0,10765.0,-9202.0,5024.0,63.0
97876507965.0,144.0,-4058.0,-723.0,21.0,-36.0,42.0,-361.0,638.0,538.0,3854.0,188.0,9238.0,9681748.0,728.0,0.0,-11998.0,4116.0,-3724.0,9677.0,-6523.0,10765.0,-9200.0,5034.0,63.0
97876527954.0,125.0,-4042.0,-729.0,16.0,-39.0,31.0,-356.0,635.0,536.0,3844.0,183.0,9236.0,9681748.0,728.0,0.0,-11995.0,4116.0,-3716.0,9683.0,-6522.0,10763.0,-9197.0,5044.0,63.0
97876547973.0,119.0,-4045.0,-756.0,10.0,-26.0,20.0,-354.0,636.0,534.0,3833.0,178.0,9233.0,9681653.0,728.0,0.0,-11993.0,4115.0,-3707.0,9690.0,-6521.0,10762.0,-9193.0,5054.0,63.0
97876567993.0,110.0,-4084.0,-764.0,14.0,-9.0,7.0,-352.0,639.0,532.0,3829.0,176.0,9231.0,9681653.0,728.0,0.0,-11992.0,4115.0,-3704.0,9693.0,-6520.0,10761.0,-9192.0,5059.0,63.0
97876588012.0,117.0,-4051.0,-759.0,12.0,13.0,-10.0,-350.0,640.0,532.0,3831.0,177.0,9230.0,9681653.0,728.0,0.0,-11990.0,4114.0,-3707.0,9695.0,-6519.0,10760.0,-9194.0,5058.0,63.0
97876608032.0,134.0,-4027.0,-746.0,10.0,28.0,-8.0,-351.0,641.0,535.0,3835.0,179.0,9228.0,9681653.0,728.0,0.0,-11988.0,4115.0,-3712.0,9695.0,-6518.0,10760.0,-9198.0,5055.0,63.0
97876628051.0,148.0,-4022.0,-737.0,2.0,34.0,-2.0,-350.0,638.0,538.0,3841.0,180.0,9227.0,9681673.0,728.0,0.0,-11986.0,4117.0,-3717.0,9694.0,-6515.0,10761.0,-9201.0,5051.0,63.0
97876648071.0,157.0,-4006.0,-743.0,-3.0,32.0,8.0,-350.0,640.0,535.0,3845.0,180.0,9227.0,9681673.0,728.0,0.0,-11984.0,4121.0,-3721.0,9693.0,-6511.0,10763.0,-9203.0,5048.0,63.0
97876668090.0,172.0,-4001.0,-742.0,-8.0,34.0,13.0,-347.0,639.0,533.0,3849.0,180.0,9227.0,9681673.0,728.0,0.0,-11983.0,4126.0,-3724.0,9691.0,-6507.0,10767.0,-9203.0,5044.0,63.0
97876688110.0,157.0,-4006.0,-758.0,-12.0,30.0,15.0,-347.0,638.0,532.0,3851.0,179.0,9228.0,9681673.0,728.0,0.0,-11982.0,4131.0,-3726.0,9689.0,-6503.0,10771.0,-9203.0,5041.0,63.0
97876708129.0,150.0,-3990.0,-767.0,-16.0,27.0,20.0,-347.0,639.0,532.0,3853.0,178.0,9229.0,9681673.0,728.0,0.0,-11982.0,4137.0,-3727.0,9687.0,-6499.0,10776.0,-9201.0,5039.0,63.0
97876728149.0,141.0,-4002.0,-787.0,-13.0,28.0,26.0,-347.0,638.0,530.0,3854.0,175.0,9231.0,9681673.0,728.0,0.0,-11981.0,4144.0,-3727.0,9685.0,-6494.0,10781.0,-9200.0,5037.0,63.0
97876748168.0,146.0,-4004.0,-771.0,-4.0,30.0,27.0,-346.0,639.0,532.0,3855.0,173.0,9231.0,9681673.0,728.0,0.0,-11979.0,4151.0,-3728.0,9684.0,-6488.0,10785.0,-9199.0,5036.0,63.0
97876768188.0,143.0,-4042.0,-775.0,8.0,29.0,19.0,-350.0,638.0,533.0,3856.0,171.0,9230.0,9681673.0,728.0,0.0,-11976.0,4156.0,-3730.0,9685.0,-6482.0,10788.0,-9200.0,5035.0,63.0
97876788208.0,130.0,-4069.0,-798.0,23.0,33.0,-2.0,-351.0,640.0,536.0,3860.0,171.0,9228.0,9681914.0,728.0,0.0,-11973.0,4159.0,-3734.0,9686.0,-6478.0,10789.0,-9204.0,5033.0,63.0
97876808227.0,143.0,-4066.0,-774.0,25.0,38.0,-22.0,-352.0,640.0,534.0,3867.0,174.0,9225.0,9681914.0,728.0,0.0,-11969.0,4159.0,-3742.0,9688.0,-6475.0,10787.0,-9210.0,5029.0,63.0
97876828247.0,141.0,-4049.0,-789.0,25.0,43.0,-30.0,-348.0,641.0,535.0,3876.0,178.0,9222.0,9681914.0,728.0,0.0,-11966.0,4159.0,-3751.0,9688.0,-6473.0,10785.0,-9217.0,5023.0,63.0
97876848266.0,155.0,-4035.0,-771.0,20.0,54.0,-30.0,-349.0,641.0,533.0,3887.0,183.0,9220.0,9681914.0,728.0,0.0,-11963.0,4160.0,-3762.0,9686.0,-6471.0,10784.0,-9224.0,5016.0,63.0
97876868286.0,171.0,-4039.0,-759.0,18.0,64.0,-29.0,-352.0,640.0,534.0,3896.0,187.0,9218.0,9681914.0,728.0,0.0,-11962.0,4159.0,-3771.0,9685.0,-6467.0,10783.0,-9233.0,5007.0,63.0
97876888305.0,189.0,-4026.0,-739.0,16.0,68.0,-26.0,-354.0,641.0,536.0,3903.0,192.0,9216.0,9681583.0,728.0,0.0,-11961.0,4156.0,-3779.0,9685.0,-6463.0,10783.0,-9241.0,4997.0,63.0
97876908325.0,207.0,-4032.0,-729.0,14.0,63.0,-22.0,-356.0,641.0,532.0,3919.0,196.0,9214.0,9681583.0,728.0,0.0,-11956.0,4164.0,-3794.0,9681.0,-6459.0,10783.0,-9249.0,4988.0,63.0
97876928344.0,207.0,-4041.0,-728.0,9.0,55.0,-22.0,-357.0,643.0,534.0,3930.0,200.0,9212.0,9681583.0,728.0,0.0,-11953.0,4166.0,-3805.0,9679.0,-6456.0,10783.0,-9255.0,4980.0,63.0
97876948364.0,210.0,-4029.0,-729.0,0.0,44.0,-21.0,-355.0,641.0,534.0,3939.0,204.0,9212.0,9681583.0,728.0,0.0,-11952.0,4168.0,-3814.0,9677.0,-6454.0,10784.0,-9260.0,4972.0,63.0
97876968505.0,212.0,-4012.0,-720.0,-5.0,36.0,-16.0,-355.0,640.0,531.0,3947.0,207.0,9211.0,9681683.0,728.0,0.0,-11952.0,4169.0,-3821.0,9674.0,-6453.0,10784.0,-9263.0,4966.0,63.0
97876988403.0,210.0,-4024.0,-725.0,-8.0,31.0,-14.0,-354.0,640.0,528.0,3953.0,209.0,9212.0,9681683.0,728.0,0.0,-11951.0,4170.0,-3826.0,9671.0,-6452.0,10786.0,-9265.0,4960.0,63.0
97877008422.0,206.0,-4016.0,-729.0,-7.0,25.0,-13.0,-357.0,641.0,525.0,3959.0,212.0,9212.0,9681683.0,728.0,0.0,-11951.0,4171.0,-3831.0,9669.0,-6451.0,10787.0,-9267.0,4955.0,63.0
97877028442.0,212.0,-4004.0,-743.0,-5.0,21.0,-5.0,-356.0,639.0,526.0,3963.0,213.0,9213.0,9681683.0,728.0,0.0,-11952.0,4172.0,-3835.0,9667.0,-6451.0,10789.0,-9267.0,4951.0,63.0
97877048461.0,210.0,-4028.0,-741.0,-2.0,18.0,3.0,-356.0,640.0,526.0,3966.0,214.0,9212.0,9681602.0,728.0,0.0,-11951.0,4174.0,-3838.0,9666.0,-6449.0,10790.0,-9268.0,4948.0,63.0
97877068481.0,205.0,-3990.0,-743.0,0.0,15.0,8.0,-355.0,640.0,524.0,3967.0,214.0,9212.0,9681602.0,728.0,0.0,-11950.0,4176.0,-3839.0,9666.0,-6447.0,10792.0,-9269.0,4947.0,63.0
97877088500.0,198.0,-4031.0,-751.0,0.0,11.0,17.0,-356.0,641.0,522.0,3968.0,213.0,9212.0,9681602.0,728.0,0.0,-11949.0,4179.0,-3840.0,9666.0,-6444.0,10793.0,-9269.0,4947.0,63.0
97877108520.0,177.0,-4018.0,-752.0,2.0,8.0,17.0,-356.0,638.0,520.0,3967.0,211.0,9212.0,9681602.0,728.0,0.0,-11947.0,4182.0,-3839.0,9667.0,-6441.0,10795.0,-9268.0,4948.0,63.0
97877128540.0,182.0,-4059.0,-732.0,12.0,16.0,8.0,-360.0,639.0,518.0,3967.0,210.0,9210.0,9681829.0,728.0,0.0,-11944.0,4185.0,-3840.0,9668.0,-6437.0,10796.0,-9270.0,4948.0,63.0
97877148559.0,171.0,-4009.0,-720.0,21.0,17.0,-4.0,-363.0,637.0,521.0,3970.0,211.0,9207.0,9681829.0,728.0,0.0,-11941.0,4185.0,-3844.0,9671.0,-6435.0,10794.0,-9273.0,4948.0,63.0
97877168579.0,181.0,-4010.0,-704.0,27.0,15.0,1.0,-364.0,639.0,520.0,3972.0,211.0,9204.0,9681829.0,728.0,0.0,-11938.0,4185.0,-3848.0,9674.0,-6432.0,10792.0,-9278.0,4948.0,63.0
97877188598.0,172.0,-4015.0,-713.0,26.0,14.0,8.0,-363.0,640.0,519.0,3973.0,211.0,9200.0,9681829.0,728.0,0.0,-11933.0,4186.0,-3850.0,9677.0,-6428.0,10791.0,-9281.0,4949.0,63.0
97877208618.0,169.0,-4029.0,-705.0,25.0,18.0,10.0,-361.0,639.0,520.0,3974.0,210.0,9197.0,9681553.0,728.0,0.0,-11929.0,4188.0,-3852.0,9681.0,-6424.0,10790.0,-9285.0,4950.0,63.0
97877228637.0,169.0,-4043.0,-707.0,16.0,23.0,8.0,-363.0,641.0,517.0,3976.0,209.0,9194.0,9681553.0,728.0,0.0,-11925.0,4190.0,-3855.0,9683.0,-6419.0,10790.0,-9288.0,4950.0,63.0
97877248657.0,180.0,-4024.0,-700.0,7.0,25.0,8.0,-364.0,638.0,517.0,3979.0,209.0,9192.0,9681553.0,728.0,0.0,-11923.0,4193.0,-3858.0,9684.0,-6415.0,10791.0,-9291.0,4949.0,63.0
97877268676.0,178.0,-4048.0,-703.0,0.0,22.0,8.0,-363.0,640.0,518.0,3981.0,209.0,9191.0,9681553.0,728.0,0.0,-11921.0,4196.0,-3861.0,9684.0,-6412.0,10792.0,-9292.0,4947.0,63.0
97877288696.0,181.0,-4096.0,-727.0,-2.0,19.0,2.0,-365.0,642.0,519.0,3983.0,209.0,9191.0,9681709.0,728.0,0.0,-11920.0,4199.0,-3863.0,9684.0,-6410.0,10794.0,-9293.0,4946.0,63.0
97877308715.0,177.0,-3989.0,-669.0,-3.0,21.0,-5.0,-361.0,643.0,521.0,3986.0,210.0,9191.0,9681709.0,728.0,0.0,-11919.0,4200.0,-3866.0,9683.0,-6408.0,10795.0,-9294.0,4943.0,63.0
97877328735.0,181.0,-4106.0,-729.0,0.0,16.0,-18.0,-357.0,638.0,522.0,3990.0,212.0,9190.0,9681709.0,728.0,0.0,-11918.0,4200.0,-3870.0,9682.0,-6408.0,10795.0,-9296.0,4939.0,63.0
97877348754.0,196.0,-4025.0,-741.0,-16.0,9.0,-21.0,-356.0,640.0,521.0,3995.0,215.0,9192.0,9681709.0,728.0,0.0,-11921.0,4199.0,-3874.0,9678.0,-6411.0,10796.0,-9296.0,4934.0,63.0
97877368774.0,197.0,-4094.0,-742.0,-18.0,10.0,-18.0,-354.0,641.0,516.0,3998.0,217.0,9193.0,9681647.0,728.0,0.0,-11922.0,4198.0,-3876.0,9676.0,-6412.0,10797.0,-9296.0,4930.0,63.0
97877388793.0,205.0,-4088.0,-760.0,-37.0,14.0,-34.0,-356.0,637.0,514.0,4004.0,221.0,9197.0,9681647.0,728.0,0.0,-11927.0,4197.0,-3880.0,9669.0,-6417.0,10799.0,-9294.0,4923.0,63.0
97877408813.0,217.0,-4098.0,-785.0,-69.0,12.0,-17.0,-357.0,637.0,517.0,4003.0,224.0,9205.0,9681647.0,728.0,0.0,-11937.0,4191.0,-3875.0,9661.0,-6422.0,10804.0,-9289.0,4915.0,63.0
97877428833.0,215.0,-4121.0,-782.0,-100.0,18.0,-6.0,-361.0,638.0,521.0,4003.0,225.0,9216.0,9681647.0,728.0,0.0,-11948.0,4192.0,-3871.0,9649.0,-6426.0,10814.0,-9280.0,4906.0,63.0
97877448852.0,167.0,-4067.0,-792.0,-142.0,16.0,-13.0,-360.0,639.0,524.0,3997.0,226.0,9231.0,9681709.0,728.0,0.0,-11965.0,4187.0,-3858.0,9634.0,-6432.0,10827.0,-9266.0,4894.0,63.0
97877468872.0,192.0,-3914.0,-732.0,-157.0,22.0,9.0,-364.0,642.0,522.0,4012.0,226.0,9249.0,9681709.0,728.0,0.0,-11976.0,4209.0,-3863.0,9609.0,-6438.0,10844.0,-9249.0,4881.0,63.0
97877488891.0,183.0,-3967.0,-673.0,-123.0,22.0,0.0,-363.0,639.0,524.0,4009.0,225.0,9263.0,9681709.0,728.0,0.0,-11990.0,4211.0,-3854.0,9594.0,-6442.0,10857.0,-9236.0,4871.0,63.0
97877508911.0,163.0,-3863.0,-646.0,-40.0,18.0,-38.0,-366.0,638.0,526.0,4015.0,229.0,9269.0,9681709.0,728.0,0.0,-11997.0,4212.0,-3857.0,9585.0,-6446.0,10862.0,-9232.0,4862.0,63.0
97877528930.0,164.0,-3913.0,-725.0,48.0,10.0,-22.0,-365.0,637.0,528.0,4019.0,232.0,9266.0,9681523.0,728.0,0.0,-11995.0,4208.0,-3863.0,9587.0,-6447.0,10859.0,-9237.0,4859.0,63.0
97877548950.0,204.0,-4012.0,-767.0,65.0,4.0,-1.0,-360.0,637.0,526.0,4013.0,233.0,9259.0,9681523.0,728.0,0.0,-11992.0,4197.0,-3859.0,9597.0,-6444.0,10852.0,-9245.0,4862.0,63.0
97877568969.0,185.0,-4040.0,-772.0,57.0,2.0,-20.0,-365.0,637.0,525.0,4014.0,234.0,9252.0,9681523.0,728.0,0.0,-11986.0,4193.0,-3863.0,9604.0,-6442.0,10846.0,-9252.0,4865.0,63.0
97877588989.0,186.0,-4032.0,-768.0,44.0,11.0,-32.0,-364.0,635.0,528.0,4018.0,238.0,9247.0,9681523.0,728.0,0.0,-11982.0,4187.0,-3870.0,9609.0,-6442.0,10840.0,-9260.0,4864.0,63.0
97877609008.0,198.0,-4102.0,-800.0,33.0,32.0,-17.0,-366.0,636.0,529.0,4024.0,241.0,9242.0,9681579.0,728.0,0.0,-11978.0,4185.0,-3877.0,9612.0,-6440.0,10836.0,-9266.0,4862.0,63.0
97877629028.0,195.0,-4079.0,-792.0,1.0,46.0,-24.0,-368.0,633.0,530.0,4032.0,244.0,9241.0,9681579.0,728.0,0.0,-11976.0,4187.0,-3886.0,9610.0,-6438.0,10836.0,-9271.0,4855.0,63.0
97877649047.0,193.0,-4083.0,-782.0,-30.0,63.0,-28.0,-366.0,635.0,526.0,4043.0,248.0,9243.0,9681579.0,728.0,0.0,-11977.0,4190.0,-3894.0,9604.0,-6436.0,10840.0,-9274.0,4844.0,63.0
97877669067.0,221.0,-4080.0,-740.0,-48.0,70.0,-19.0,-366.0,632.0,528.0,4047.0,252.0,9248.0,9681579.0,728.0,0.0,-11983.0,4187.0,-3896.0,9597.0,-6434.0,10846.0,-9275.0,4831.0,63.0
97877689086.0,208.0,-4074.0,-752.0,-53.0,62.0,-29.0,-366.0,632.0,527.0,4056.0,256.0,9254.0,9681754.0,728.0,0.0,-11988.0,4190.0,-3901.0,9587.0,-6434.0,10852.0,-9275.0,4818.0,63.0
97877709106.0,228.0,-4057.0,-768.0,-55.0,56.0,-44.0,-373.0,637.0,525.0,4085.0,262.0,9261.0,9681754.0,728.0,0.0,-11988.0,4211.0,-3924.0,9569.0,-6436.0,10858.0,-9274.0,4803.0,63.0
97877729125.0,205.0,-4038.0,-784.0,-63.0,49.0,-59.0,-376.0,635.0,529.0,4097.0,269.0,9268.0,9681754.0,728.0,0.0,-11995.0,4211.0,-3932.0,9557.0,-6440.0,10863.0,-9273.0,4788.0,63.0
97877749145.0,252.0,-4047.0,-787.0,-75.0,42.0,-69.0,-372.0,634.0,528.0,4103.0,277.0,9276.0,9681754.0,728.0,0.0,-12008.0,4200.0,-3934.0,9545.0,-6448.0,10868.0,-9272.0,4771.0,63.0
97877769165.0,240.0,-4047.0,-800.0,-92.0,27.0,-77.0,-372.0,631.0,530.0,4110.0,286.0,9286.0,9681679.0,728.0,0.0,-12021.0,4191.0,-3935.0,9531.0,-6458.0,10873.0,-9267.0,4754.0,63.0
97877789184.0,248.0,-3987.0,-792.0,-100.0,9.0,-77.0,-376.0,631.0,528.0,4129.0,294.0,9298.0,9681679.0,728.0,0.0,-12032.0,4195.0,-3947.0,9511.0,-6471.0,10878.0,-9260.0,4737.0,63.0
97877809204.0,269.0,-4009.0,-822.0,-90.0,-6.0,-74.0,-375.0,629.0,530.0,4132.0,303.0,9309.0,9681679.0,728.0,0.0,-12048.0,4183.0,-3944.0,9497.0,-6485.0,10882.0,-9253.0,4724.0,63.0
97877829223.0,272.0,-3985.0,-907.0,-81.0,-2.0,-81.0,-376.0,629.0,530.0,4142.0,311.0,9321.0,9681679.0,728.0,0.0,-12061.0,4178.0,-3948.0,9481.0,-6499.0,10886.0,-9246.0,4710.0,63.0
97877849243.0,300.0,-4026.0,-817.0,-65.0,-3.0,-96.0,-379.0,630.0,532.0,4153.0,321.0,9328.0,9681427.0,728.0,0.0,-12072.0,4169.0,-3955.0,9469.0,-6513.0,10885.0,-9243.0,4696.0,63.0
97877869262.0,278.0,-3933.0,-801.0,-50.0,-12.0,-107.0,-379.0,628.0,536.0,4156.0,332.0,9335.0,9681427.0,728.0,0.0,-12086.0,4149.0,-3954.0,9460.0,-6530.0,10883.0,-9241.0,4684.0,63.0
97877889282.0,277.0,-3956.0,-834.0,-45.0,-2.0,-64.0,-376.0,624.0,537.0,4152.0,340.0,9341.0,9681427.0,728.0,0.0,-12100.0,4126.0,-3947.0,9455.0,-6542.0,10882.0,-9239.0,4673.0,63.0
97877909301.0,333.0,-3981.0,-837.0,-56.0,16.0,-42.0,-380.0,622.0,529.0,4179.0,345.0,9348.0,9681427.0,728.0,0.0,-12100.0,4146.0,-3969.0,9437.0,-6549.0,10884.0,-9236.0,4663.0,63.0
97877929321.0,353.0,-4007.0,-803.0,-48.0,17.0,-62.0,-383.0,621.0,530.0,4193.0,352.0,9353.0,9681694.0,728.0,0.0,-12105.0,4148.0,-3979.0,9426.0,-6556.0,10886.0,-9235.0,4652.0,63.0
97877949340.0,358.0,-3922.0,-844.0,-42.0,17.0,-45.0,-381.0,620.0,533.0,4193.0,359.0,9360.0,9681694.0,728.0,0.0,-12116.0,4134.0,-3976.0,9419.0,-6564.0,10887.0,-9233.0,4641.0,63.0
97877969360.0,343.0,-3948.0,-777.0,-26.0,17.0,-19.0,-385.0,615.0,533.0,4199.0,362.0,9362.0,9681694.0,728.0,0.0,-12118.0,4133.0,-3980.0,9415.0,-6566.0,10889.0,-9233.0,4634.0,63.0
97877989379.0,361.0,-3998.0,-842.0,-4.0,15.0,2.0,-386.0,613.0,533.0,4202.0,363.0,9363.0,9681694.0,728.0,0.0,-12118.0,4135.0,-3982.0,9412.0,-6566.0,10891.0,-9233.0,4631.0,63.0
97878009399.0,342.0,-4036.0,-882.0,-16.0,1.0,-11.0,-384.0,615.0,537.0,4204.0,364.0,9364.0,9681609.0,728.0,0.0,-12120.0,4135.0,-3983.0,9410.0,-6567.0,10892.0,-9232.0,4629.0,63.0
97878029418.0,370.0,-4026.0,-879.0,-24.0,-13.0,2.0,-385.0,614.0,539.0,4204.0,365.0,9367.0,9681609.0,728.0,0.0,-12123.0,4134.0,-3982.0,9407.0,-6570.0,10894.0,-9228.0,4627.0,63.0
97878049438.0,343.0,-4027.0,-915.0,-45.0,-26.0,-9.0,-381.0,612.0,541.0,4202.0,365.0,9372.0,9681609.0,728.0,0.0,-12128.0,4132.0,-3978.0,9403.0,-6575.0,10896.0,-9222.0,4626.0,63.0
97878069458.0,295.0,-3971.0,-862.0,-60.0,-39.0,-12.0,-379.0,612.0,541.0,4189.0,365.0,9378.0,9681609.0,728.0,0.0,-12139.0,4120.0,-3964.0,9400.0,-6582.0,10899.0,-9213.0,4626.0,63.0
97878089477.0,304.0,-3947.0,-937.0,-58.0,-30.0,20.0,-381.0,609.0,542.0,4181.0,362.0,9387.0,9681855.0,728.0,0.0,-12149.0,4119.0,-3952.0,9393.0,-6588.0,10905.0,-9202.0,4626.0,63.0
97878109497.0,277.0,-3999.0,-895.0,-50.0,-7.0,10.0,-383.0,606.0,543.0,4177.0,360.0,9392.0,9681855.0,728.0,0.0,-12153.0,4122.0,-3946.0,9389.0,-6589.0,10911.0,-9194.0,4626.0,63.0
97878129516.0,291.0,-3855.0,-861.0,-37.0,16.0,-9.0,-381.0,606.0,545.0,4180.0,361.0,9397.0,9681855.0,728.0,0.0,-12157.0,4123.0,-3947.0,9382.0,-6592.0,10915.0,-9190.0,4621.0,63.0
97878149536.0,295.0,-3980.0,-880.0,12.0,28.0,15.0,-380.0,605.0,543.0,4183.0,361.0,9396.0,9681855.0,728.0,0.0,-12155.0,4127.0,-3950.0,9382.0,-6588.0,10917.0,-9192.0,4619.0,63.0
97878169555.0,325.0,-3964.0,-902.0,18.0,29.0,14.0,-380.0,606.0,544.0,4186.0,361.0,9394.0,9681976.0,728.0,0.0,-12152.0,4131.0,-3953.0,9384.0,-6583.0,10918.0,-9195.0,4618.0,63.0
97878189575.0,305.0,-4015.0,-920.0,13.0,20.0,8.0,-380.0,609.0,543.0,4188.0,360.0,9392.0,9681976.0,728.0,0.0,-12149.0,4134.0,-3956.0,9385.0,-6579.0,10919.0,-9197.0,4618.0,63.0
97878209594.0,310.0,-4032.0,-921.0,2.0,18.0,0.0,-382.0,609.0,546.0,4190.0,360.0,9391.0,9681976.0,728.0,0.0,-12147.0,4135.0,-3958.0,9385.0,-6577.0,10919.0,-9198.0,4616.0,63.0
97878229614.0,311.0,-4024.0,-936.0,-16.0,19.0,-8.0,-385.0,608.0,543.0,4194.0,361.0,9392.0,9681976.0,728.0,0.0,-12148.0,4137.0,-3961.0,9382.0,-6576.0,10922.0,-9198.0,4612.0,63.0
97878249633.0,329.0,-4047.0,-934.0,-32.0,20.0,-8.0,-382.0,610.0,544.0,4198.0,363.0,9395.0,9681754.0,728.0,0.0,-12151.0,4138.0,-3964.0,9377.0,-6577.0,10925.0,-9196.0,4606.0,63.0
97878269653.0,323.0,-4052.0,-942.0,-52.0,17.0,-3.0,-380.0,612.0,545.0,4202.0,365.0,9401.0,9681754.0,728.0,0.0,-12155.0,4141.0,-3964.0,9370.0,-6579.0,10930.0,-9192.0,4600.0,63.0
97878289672.0,319.0,-3965.0,-904.0,-74.0,17.0,-9.0,-384.0,610.0,549.0,4200.0,366.0,9409.0,9681754.0,728.0,0.0,-12165.0,4139.0,-3959.0,9361.0,-6582.0,10938.0,-9185.0,4592.0,63.0
97878309692.0,328.0,-3940.0,-834.0,-46.0,12.0,-8.0,-383.0,612.0,549.0,4204.0,367.0,9414.0,9681754.0,728.0,0.0,-12169.0,4140.0,-3960.0,9354.0,-6584.0,10942.0,-9181.0,4586.0,63.0
97878329711.0,343.0,-4027.0,-943.0,-22.0,-4.0,6.0,-381.0,607.0,549.0,4205.0,367.0,9418.0,9681613.0,728.0,0.0,-12172.0,4142.0,-3959.0,9350.0,-6586.0,10946.0,-9177.0,4584.0,63.0
97878349731.0,286.0,-3949.0,-957.0,-37.0,-14.0,17.0,-384.0,605.0,553.0,4201.0,365.0,9422.0,9681613.0,728.0,0.0,-12176.0,4144.0,-3953.0,9347.0,-6587.0,10950.0,-9170.0,4584.0,63.0
97878369750.0,260.0,-3893.0,-927.0,-33.0,-4.0,46.0,-385.0,606.0,554.0,4195.0,361.0,9426.0,9681613.0,728.0,0.0,-12177.0,4150.0,-3947.0,9344.0,-6585.0,10956.0,-9163.0,4587.0,63.0
97878389770.0,281.0,-3984.0,-925.0,-8.0,11.0,44.0,-388.0,607.0,549.0,4191.0,356.0,9427.0,9681613.0,728.0,0.0,-12176.0,4157.0,-3943.0,9344.0,-6579.0,10962.0,-9160.0,4590.0,63.0
97878409790.0,304.0,-4009.0,-935.0,10.0,18.0,26.0,-390.0,605.0,549.0,4191.0,353.0,9426.0,9681654.0,728.0,0.0,-12174.0,4162.0,-3943.0,9346.0,-6574.0,10964.0,-9160.0,4591.0,63.0
97878429809.0,243.0,-3966.0,-900.0,-19.0,12.0,9.0,-386.0,604.0,551.0,4191.0,352.0,9426.0,9681654.0,728.0,0.0,-12173.0,4166.0,-3942.0,9345.0,-6571.0,10967.0,-9159.0,4590.0,63.0
97878449829.0,260.0,-4059.0,-996.0,-33.0,17.0,19.0,-381.0,606.0,550.0,4191.0,350.0,9430.0,9681654.0,728.0,0.0,-12175.0,4171.0,-3940.0,9341.0,-6569.0,10973.0,-9154.0,4588.0,63.0
97878469848.0,240.0,-3989.0,-946.0,-39.0,35.0,7.0,-384.0,607.0,549.0,4196.0,349.0,9437.0,9681654.0,728.0,0.0,-12179.0,4180.0,-3941.0,9332.0,-6566.0,10983.0,-9148.0,4581.0,63.0
97878489868.0,290.0,-3841.0,-885.0,-15.0,50.0,1.0,-385.0,606.0,548.0,4203.0,351.0,9439.0,9681543.0,728.0,0.0,-12179.0,4185.0,-3947.0,9327.0,-6563.0,10987.0,-9149.0,4573.0,63.0
97878509887.0,286.0,-4092.0,-854.0,34.0,38.0,-16.0,-387.0,603.0,549.0,4209.0,353.0,9434.0,9681543.0,728.0,0.0,-12173.0,4187.0,-3955.0,9330.0,-6558.0,10985.0,-9157.0,4570.0,63.0
97878529907.0,321.0,-3871.0,-986.0,45.0,15.0,-20.0,-392.0,605.0,548.0,4215.0,356.0,9431.0,9681543.0,728.0,0.0,-12171.0,4184.0,-3961.0,9331.0,-6558.0,10982.0,-9162.0,4567.0,63.0
97878549926.0,316.0,-3943.0,-852.0,78.0,10.0,-9.0,-391.0,604.0,544.0,4221.0,358.0,9423.0,9681543.0,728.0,0.0,-12162.0,4185.0,-3971.0,9338.0,-6554.0,10974.0,-9173.0,4570.0,63.0
97878569946.0,316.0,-3913.0,-903.0,101.0,0.0,-5.0,-393.0,605.0,542.0,4232.0,358.0,9413.0,9681730.0,728.0,0.0,-12150.0,4193.0,-3984.0,9345.0,-6551.0,10965.0,-9184.0,4575.0,63.0
97878589965.0,302.0,-3977.0,-883.0,122.0,3.0,7.0,-386.0,607.0,542.0,4217.0,358.0,9400.0,9681730.0,728.0,0.0,-12143.0,4176.0,-3978.0,9365.0,-6544.0,10953.0,-9197.0,4584.0,63.0
97878609985.0,281.0,-4092.0,-945.0,111.0,12.0,0.0,-386.0,605.0,543.0,4213.0,357.0,9388.0,9681730.0,728.0,0.0,-12133.0,4169.0,-3980.0,9380.0,-6537.0,10943.0,-9211.0,4591.0,63.0
97878630004.0,320.0,-4041.0,-878.0,52.0,23.0,-4.0,-387.0,605.0,543.0,4212.0,358.0,9381.0,9681730.0,728.0,0.0,-12127.0,4163.0,-3983.0,9389.0,-6533.0,10937.0,-9221.0,4593.0,63.0
97878650024.0,296.0,-4096.0,-849.0,21.0,20.0,-6.0,-387.0,605.0,540.0,4215.0,359.0,9376.0,9681831.0,728.0,0.0,-12123.0,4163.0,-3987.0,9392.0,-6529.0,10934.0,-9226.0,4593.0,63.0
97878670043.0,308.0,-4011.0,-832.0,-8.0,23.0,-14.0,-387.0,610.0,540.0,4220.0,361.0,9376.0,9681831.0,728.0,0.0,-12122.0,4163.0,-3992.0,9391.0,-6529.0,10934.0,-9229.0,4588.0,63.0
97878690063.0,309.0,-4062.0,-849.0,-29.0,25.0,-3.0,-385.0,611.0,542.0,4225.0,363.0,9378.0,9681831.0,728.0,0.0,-12124.0,4165.0,-3995.0,9387.0,-6528.0,10938.0,-9228.0,4583.0,63.0
97878710083.0,315.0,-3975.0,-814.0,-34.0,19.0,-8.0,-384.0,616.0,541.0,4229.0,364.0,9381.0,9681831.0,728.0,0.0,-12126.0,4167.0,-3998.0,9382.0,-6529.0,10941.0,-9226.0,4578.0,63.0
97878730102.0,313.0,-4087.0,-820.0,0.0,12.0,-10.0,-388.0,618.0,540.0,4232.0,366.0,9381.0,9681820.0,728.0,0.0,-12126.0,4167.0,-4000.0,9380.0,-6529.0,10942.0,-9227.0,4575.0,63.0
97878750122.0,358.0,-3954.0,-856.0,-15.0,-2.0,-18.0,-389.0,617.0,540.0,4236.0,369.0,9382.0,9681820.0,728.0,0.0,-12128.0,4165.0,-4003.0,9378.0,-6532.0,10941.0,-9226.0,4571.0,63.0
97878770141.0,312.0,-4025.0,-796.0,-20.0,-21.0,-21.0,-392.0,616.0,541.0,4235.0,370.0,9384.0,9681820.0,728.0,0.0,-12131.0,4162.0,-4002.0,9377.0,-6536.0,10941.0,-9224.0,4571.0,63.0
97878790161.0,334.0,-3977.0,-842.0,-26.0,-43.0,-35.0,-390.0,617.0,538.0,4234.0,373.0,9387.0,9681820.0,728.0,0.0,-12136.0,4154.0,-4000.0,9373.0,-6545.0,10939.0,-9220.0,4570.0,63.0
97878810180.0,317.0,-3950.0,-832.0,-27.0,-51.0,-26.0,-393.0,617.0,538.0,4236.0,375.0,9391.0,9681624.0,728.0,0.0,-12141.0,4153.0,-3999.0,9369.0,-6555.0,10937.0,-9215.0,4571.0,63.0
97878830200.0,294.0,-3990.0,-864.0,-25.0,-46.0,-23.0,-393.0,616.0,536.0,4231.0,376.0,9394.0,9681624.0,728.0,0.0,-12146.0,4147.0,-3993.0,9367.0,-6563.0,10936.0,-9209.0,4573.0,63.0
97878850219.0,330.0,-3944.0,-833.0,-3.0,-38.0,-30.0,-393.0,616.0,538.0,4230.0,378.0,9395.0,9681624.0,728.0,0.0,-12150.0,4139.0,-3992.0,9366.0,-6571.0,10933.0,-9207.0,4574.0,63.0
97878870239.0,287.0,-3928.0,-812.0,10.0,-34.0,-50.0,-390.0,615.0,539.0,4229.0,382.0,9394.0,9681624.0,728.0,0.0,-12152.0,4129.0,-3992.0,9368.0,-6579.0,10927.0,-9208.0,4575.0,63.0
97878890258.0,355.0,-3883.0,-708.0,31.0,-51.0,-22.0,-386.0,614.0,538.0,4227.0,385.0,9390.0,9681699.0,728.0,0.0,-12151.0,4118.0,-3992.0,9373.0,-6586.0,10919.0,-9211.0,4579.0,63.0
97878910278.0,388.0,-4017.0,-711.0,10.0,-117.0,12.0,-383.0,610.0,544.0,4194.0,382.0,9388.0,9681699.0,728.0,0.0,-12161.0,4085.0,-3963.0,9388.0,-6594.0,10911.0,-9208.0,4592.0,63.0
97878930297.0,390.0,-4087.0,-765.0,-13.0,-171.0,47.0,-385.0,606.0,543.0,4170.0,374.0,9390.0,9681699.0,728.0,0.0,-12165.0,4078.0,-3941.0,9394.0,-6606.0,10907.0,-9194.0,4614.0,63.0
97878950317.0,362.0,-4228.0,-940.0,-74.0,-197.0,8.0,-386.0,607.0,544.0,4140.0,366.0,9399.0,9681699.0,728.0,0.0,-12179.0,4065.0,-3910.0,9395.0,-6625.0,10905.0,-9171.0,4634.0,63.0
97878970336.0,345.0,-4029.0,-995.0,-100.0,-198.0,-11.0,-384.0,604.0,541.0,4117.0,363.0,9414.0,9681675.0,728.0,0.0,-12199.0,4052.0,-3882.0,9386.0,-6651.0,10906.0,-9145.0,4648.0,63.0
97878990356.0,240.0,-3994.0,-995.0,-145.0,-178.0,-46.0,-385.0,607.0,545.0,4095.0,360.0,9432.0,9681675.0,728.0,0.0,-12222.0,4036.0,-3855.0,9375.0,-6680.0,10908.0,-9117.0,4657.0,63.0
97879010375.0,220.0,-3938.0,-1084.0,-154.0,-132.0,-30.0,-384.0,603.0,547.0,4079.0,360.0,9452.0,9681675.0,728.0,0.0,-12246.0,4025.0,-3832.0,9357.0,-6706.0,10915.0,-9089.0,4659.0,63.0
97879030395.0,231.0,-4017.0,-1091.0,-151.0,-76.0,2.0,-382.0,602.0,548.0,4068.0,357.0,9471.0,9681675.0,728.0,0.0,-12266.0,4023.0,-3813.0,9340.0,-6723.0,10925.0,-9064.0,4658.0,63.0
97879050415.0,210.0,-3924.0,-1065.0,-138.0,-19.0,-3.0,-380.0,604.0,549.0,4066.0,356.0,9489.0,9681483.0,728.0,0.0,-12282.0,4029.0,-3803.0,9320.0,-6733.0,10938.0,-9044.0,4652.0,63.0
97879070434.0,251.0,-3942.0,-1042.0,-106.0,19.0,5.0,-379.0,606.0,551.0,4070.0,356.0,9502.0,9681483.0,728.0,0.0,-12293.0,4037.0,-3800.0,9304.0,-6738.0,10950.0,-9031.0,4642.0,63.0
97879090454.0,296.0,-3909.0,-993.0,-67.0,34.0,21.0,-376.0,604.0,556.0,4066.0,355.0,9511.0,9681483.0,728.0,0.0,-12302.0,4036.0,-3793.0,9295.0,-6737.0,10960.0,-9024.0,4634.0,63.0
97879110473.0,282.0,-3936.0,-1023.0,-28.0,37.0,28.0,-379.0,603.0,555.0,4080.0,352.0,9516.0,9681483.0,728.0,0.0,-12299.0,4060.0,-3802.0,9284.0,-6732.0,10968.0,-9020.0,4630.0,63.0
97879130493.0,322.0,-3952.0,-1023.0,-2.0,45.0,23.0,-376.0,602.0,554.0,4084.0,352.0,9517.0,9681574.0,728.0,0.0,-12297.0,4067.0,-3806.0,9282.0,-6726.0,10973.0,-9020.0,4626.0,63.0
97879150512.0,323.0,-3989.0,-1026.0,4.0,52.0,6.0,-376.0,600.0,553.0,4091.0,352.0,9516.0,9681574.0,728.0,0.0,-12294.0,4073.0,-3812.0,9281.0,-6720.0,10976.0,-9024.0,4621.0,63.0
97879170532.0,332.0,-3948.0,-1000.0,-1.0,53.0,-2.0,-377.0,601.0,553.0,4099.0,354.0,9515.0,9681574.0,728.0,0.0,-12292.0,4077.0,-3820.0,9278.0,-6716.0,10978.0,-9027.0,4614.0,63.0
97879190551.0,335.0,-3947.0,-972.0,-4.0,52.0,8.0,-377.0,599.0,555.0,4107.0,356.0,9515.0,9681574.0,728.0,0.0,-12290.0,4083.0,-3827.0,9276.0,-6710.0,10981.0,-9031.0,4608.0,63.0
97879210571.0,363.0,-3932.0,-908.0,6.0,37.0,2.0,-375.0,601.0,558.0,4113.0,357.0,9513.0,9681765.0,728.0,0.0,-12287.0,4087.0,-3833.0,9276.0,-6706.0,10982.0,-9035.0,4603.0,63.0
97879230590.0,389.0,-3917.0,-878.0,22.0,-4.0,8.0,-378.0,602.0,560.0,4114.0,358.0,9510.0,9681765.0,728.0,0.0,-12284.0,4086.0,-3836.0,9279.0,-6704.0,10980.0,-9039.0,4604.0,63.0
97879250610.0,375.0,-3985.0,-886.0,14.0,-57.0,45.0,-380.0,601.0,558.0,4104.0,353.0,9507.0,9681765.0,728.0,0.0,-12282.0,4085.0,-3828.0,9285.0,-6703.0,10979.0,-9036.0,4614.0,63.0
97879270629.0,372.0,-4009.0,-911.0,-9.0,-98.0,56.0,-384.0,602.0,559.0,4093.0,345.0,9509.0,9681765.0,728.0,0.0,-12281.0,4093.0,-3818.0,9288.0,-6706.0,10978.0,-9027.0,4629.0,63.0
97879290649.0,331.0,-4001.0,-936.0,-19.0,-121.0,44.0,-385.0,601.0,563.0,4070.0,336.0,9512.0,9681739.0,728.0,0.0,-12286.0,4088.0,-3796.0,9292.0,-6712.0,10978.0,-9014.0,4646.0,63.0
97879310668.0,315.0,-4002.0,-978.0,-19.0,-124.0,33.0,-386.0,601.0,561.0,4057.0,328.0,9516.0,9681739.0,728.0,0.0,-12289.0,4092.0,-3783.0,9292.0,-6721.0,10976.0,-9001.0,4662.0,63.0
97879330688.0,271.0,-3997.0,-1030.0,-9.0,-113.0,22.0,-381.0,602.0,561.0,4036.0,322.0,9519.0,9681739.0,728.0,0.0,-12295.0,4085.0,-3762.0,9296.0,-6730.0,10974.0,-8989.0,4677.0,63.0
97879350708.0,251.0,-3972.0,-1041.0,-1.0,-88.0,21.0,-378.0,599.0,566.0,4009.0,316.0,9521.0,9681739.0,728.0,0.0,-12303.0,4067.0,-3738.0,9303.0,-6737.0,10972.0,-8979.0,4690.0,63.0
97879370727.0,239.0,-3958.0,-1030.0,0.0,-62.0,23.0,-378.0,598.0,565.0,3999.0,311.0,9523.0,9681639.0,728.0,0.0,-12304.0,4068.0,-3728.0,9304.0,-6741.0,10971.0,-8973.0,4701.0,63.0
97879390747.0,221.0,-3963.0,-1013.0,20.0,-41.0,16.0,-380.0,598.0,565.0,3990.0,308.0,9521.0,9681639.0,728.0,0.0,-12303.0,4066.0,-3721.0,9309.0,-6742.0,10969.0,-8970.0,4709.0,63.0
97879410766.0,236.0,-3928.0,-1022.0,50.0,-18.0,22.0,-375.0,598.0,569.0,3984.0,305.0,9517.0,9681639.0,728.0,0.0,-12299.0,4064.0,-3718.0,9317.0,-6741.0,10965.0,-8971.0,4717.0,63.0
97879430786.0,240.0,-3980.0,-984.0,64.0,-6.0,23.0,-372.0,601.0,571.0,3973.0,302.0,9510.0,9681639.0,728.0,0.0,-12295.0,4057.0,-3711.0,9328.0,-6735.0,10961.0,-8977.0,4724.0,63.0
97879450805.0,240.0,-3942.0,-980.0,75.0,-5.0,8.0,-371.0,599.0,569.0,3971.0,301.0,9503.0,9681921.0,728.0,0.0,-12288.0,4056.0,-3712.0,9337.0,-6731.0,10955.0,-8984.0,4731.0,63.0
97879470825.0,244.0,-3987.0,-978.0,97.0,-9.0,17.0,-373.0,596.0,568.0,3974.0,299.0,9493.0,9681921.0,728.0,0.0,-12276.0,4062.0,-3720.0,9347.0,-6725.0,10946.0,-8993.0,4740.0,63.0
97879490844.0,232.0,-3976.0,-966.0,88.0,-11.0,15.0,-374.0,595.0,566.0,3973.0,296.0,9483.0,9681921.0,728.0,0.0,-12265.0,4065.0,-3723.0,9359.0,-6720.0,10939.0,-9002.0,4750.0,63.0
97879510864.0,216.0,-3992.0,-962.0,74.0,-13.0,9.0,-373.0,598.0,566.0,3968.0,294.0,9475.0,9681921.0,728.0,0.0,-12258.0,4062.0,-3723.0,9370.0,-6716.0,10932.0,-9009.0,4758.0,63.0
97879530883.0,229.0,-3979.0,-932.0,58.0,-4.0,17.0,-371.0,600.0,564.0,3967.0,292.0,9468.0,9681619.0,728.0,0.0,-12251.0,4064.0,-3724.0,9377.0,-6711.0,10926.0,-9015.0,4765.0,63.0
97879550903.0,196.0,-3952.0,-905.0,66.0,3.0,8.0,-368.0,601.0,563.0,3965.0,290.0,9461.0,9681619.0,728.0,0.0,-12243.0,4063.0,-3726.0,9387.0,-6706.0,10921.0,-9022.0,4772.0,63.0
97879570922.0,212.0,-3958.0,-904.0,88.0,18.0,9.0,-365.0,603.0,562.0,3960.0,290.0,9452.0,9681619.0,728.0,0.0,-12237.0,4057.0,-3725.0,9399.0,-6700.0,10915.0,-9032.0,4777.0,63.0
97879590942.0,202.0,-3927.0,-878.0,113.0,31.0,18.0,-364.0,604.0,559.0,3961.0,288.0,9440.0,9681619.0,728.0,0.0,-12224.0,4058.0,-3732.0,9412.0,-6689.0,10907.0,-9046.0,4783.0,63.0
97879610961.0,237.0,-4015.0,-901.0,132.0,32.0,23.0,-365.0,604.0,559.0,3962.0,286.0,9426.0,9681604.0,728.0,0.0,-12209.0,4060.0,-3739.0,9428.0,-6677.0,10898.0,-9062.0,4790.0,63.0
97879630981.0,267.0,-4002.0,-879.0,139.0,21.0,18.0,-364.0,602.0,556.0,3962.0,285.0,9411.0,9681604.0,728.0,0.0,-12194.0,4059.0,-3746.0,9445.0,-6666.0,10887.0,-9079.0,4799.0,63.0
97879651000.0,255.0,-4100.0,-908.0,135.0,7.0,6.0,-365.0,603.0,557.0,3959.0,284.0,9395.0,9681604.0,728.0,0.0,-12180.0,4054.0,-3750.0,9463.0,-6656.0,10875.0,-9095.0,4808.0,63.0
97879671020.0,254.0,-4055.0,-902.0,103.0,1.0,-9.0,-363.0,605.0,554.0,3955.0,285.0,9384.0,9681604.0,728.0,0.0,-12171.0,4044.0,-3751.0,9478.0,-6651.0,10864.0,-9108.0,4815.0,63.0
97879691040.0,231.0,-4017.0,-854.0,77.0,1.0,-8.0,-362.0,608.0,551.0,3956.0,285.0,9375.0,9681609.0,728.0,0.0,-12163.0,4042.0,-3757.0,9488.0,-6648.0,10855.0,-9118.0,4821.0,63.0
97879711059.0,237.0,-4026.0,-832.0,56.0,0.0,-6.0,-364.0,610.0,553.0,3953.0,286.0,9368.0,9681609.0,728.0,0.0,-12158.0,4035.0,-3757.0,9497.0,-6645.0,10849.0,-9126.0,4825.0,63.0
97879731079.0,247.0,-4085.0,-874.0,29.0,2.0,6.0,-365.0,612.0,552.0,3953.0,285.0,9364.0,9681654.0,728.0,0.0,-12154.0,4034.0,-3759.0,9501.0,-6643.0,10846.0,-9130.0,4827.0,63.0
97879751098.0,220.0,-4018.0,-820.0,10.0,2.0,2.0,-367.0,616.0,549.0,3952.0,285.0,9360.0,9681654.0,728.0,0.0,-12151.0,4034.0,-3760.0,9505.0,-6641.0,10844.0,-9132.0,4829.0,63.0
97879771118.0,227.0,-4071.0,-900.0,-11.0,1.0,2.0,-364.0,616.0,547.0,3952.0,285.0,9360.0,9681654.0,728.0,0.0,-12151.0,4035.0,-3760.0,9505.0,-6640.0,10846.0,-9130.0,4829.0,63.0
97879791137.0,200.0,-4021.0,-907.0,-35.0,4.0,10.0,-368.0,615.0,546.0,3952.0,284.0,9364.0,9681654.0,728.0,0.0,-12154.0,4038.0,-3758.0,9501.0,-6641.0,10850.0,-9126.0,4828.0,63.0
97879811157.0,175.0,-4042.0,-908.0,-61.0,19.0,7.0,-370.0,614.0,547.0,3953.0,283.0,9370.0,9681760.0,728.0,0.0,-12158.0,4043.0,-3756.0,9494.0,-6641.0,10857.0,-9119.0,4823.0,63.0
97879831176.0,212.0,-3904.0,-846.0,-55.0,35.0,12.0,-367.0,613.0,546.0,3956.0,282.0,9377.0,9681760.0,728.0,0.0,-12162.0,4050.0,-3756.0,9485.0,-6640.0,10865.0,-9114.0,4817.0,63.0
97879851196.0,210.0,-4196.0,-952.0,-16.0,40.0,3.0,-371.0,615.0,547.0,3961.0,282.0,9379.0,9681760.0,728.0,0.0,-12163.0,4056.0,-3759.0,9480.0,-6636.0,10871.0,-9113.0,4811.0,63.0
97879871215.0,265.0,-3802.0,-803.0,2.0,40.0,-10.0,-372.0,616.0,547.0,3970.0,286.0,9379.0,9681760.0,728.0,0.0,-12162.0,4058.0,-3767.0,9478.0,-6634.0,10872.0,-9117.0,4804.0,63.0
97879891235.0,196.0,-4030.0,-866.0,14.0,50.0,4.0,-369.0,617.0,549.0,3975.0,286.0,9377.0,9681483.0,728.0,0.0,-12159.0,4063.0,-3772.0,9478.0,-6628.0,10874.0,-9121.0,4801.0,63.0
97879911254.0,281.0,-3980.0,-910.0,2.0,49.0,-6.0,-371.0,617.0,548.0,3983.0,288.0,9377.0,9681483.0,728.0,0.0,-12157.0,4066.0,-3780.0,9476.0,-6625.0,10875.0,-9125.0,4794.0,63.0
97879931274.0,290.0,-3987.0,-808.0,11.0,44.0,-12.0,-371.0,619.0,548.0,3991.0,291.0,9374.0,9681483.0,728.0,0.0,-12153.0,4069.0,-3789.0,9476.0,-6621.0,10875.0,-9131.0,4788.0,63.0
97879951293.0,301.0,-3968.0,-806.0,26.0,20.0,-28.0,-366.0,620.0,547.0,3998.0,295.0,9371.0,9681483.0,728.0,0.0,-12151.0,4066.0,-3796.0,9477.0,-6620.0,10872.0,-9137.0,4784.0,63.0
97879971313.0,312.0,-3932.0,-804.0,49.0,-7.0,-16.0,-369.0,616.0,544.0,4001.0,298.0,9366.0,9681669.0,728.0,0.0,-12147.0,4061.0,-3801.0,9482.0,-6621.0,10866.0,-9143.0,4785.0,63.0
97879991333.0,332.0,-3935.0,-766.0,62.0,-40.0,6.0,-374.0,616.0,547.0,3997.0,298.0,9358.0,9681669.0,728.0,0.0,-12142.0,4055.0,-3801.0,9492.0,-6621.0,10858.0,-9149.0,4792.0,63.0
97880011352.0,324.0,-3978.0,-798.0,83.0,-74.0,15.0,-372.0,618.0,547.0,3984.0,295.0,9351.0,9681669.0,728.0,0.0,-12137.0,4045.0,-3792.0,9505.0,-6622.0,10848.0,-9152.0,4806.0,63.0
97880031372.0,270.0,-3998.0,-863.0,99.0,-83.0,14.0,-373.0,618.0,546.0,3974.0,290.0,9342.0,9681669.0,728.0,0.0,-12130.0,4041.0,-3787.0,9519.0,-6624.0,10836.0,-9156.0,4824.0,63.0
97880051391.0,224.0,-4016.0,-917.0,95.0,-61.0,23.0,-373.0,621.0,540.0,3974.0,286.0,9333.0,9681624.0,728.0,0.0,-12118.0,4049.0,-3791.0,9529.0,-6623.0,10826.0,-9160.0,4841.0,63.0
97880071411.0,209.0,-4021.0,-910.0,73.0,-25.0,39.0,-375.0,618.0,542.0,3968.0,280.0,9325.0,9681624.0,728.0,0.0,-12108.0,4053.0,-3790.0,9539.0,-6619.0,10820.0,-9164.0,4854.0,63.0
97880091430.0,209.0,-4041.0,-892.0,69.0,10.0,42.0,-376.0,618.0,544.0,3965.0,275.0,9318.0,9681624.0,728.0,0.0,-12099.0,4060.0,-3791.0,9549.0,-6610.0,10816.0,-9169.0,4863.0,63.0
97880111450.0,230.0,-4059.0,-848.0,65.0,39.0,38.0,-369.0,622.0,547.0,3950.0,272.0,9310.0,9681624.0,728.0,0.0,-12095.0,4049.0,-3780.0,9562.0,-6599.0,10814.0,-9178.0,4868.0,63.0
97880131469.0,214.0,-4014.0,-792.0,52.0,50.0,28.0,-367.0,619.0,542.0,3954.0,269.0,9304.0,9681735.0,728.0,0.0,-12085.0,4057.0,-3786.0,9568.0,-6587.0,10813.0,-9186.0,4870.0,63.0
97880151489.0,240.0,-4024.0,-750.0,72.0,55.0,34.0,-365.0,616.0,542.0,3953.0,267.0,9296.0,9681735.0,728.0,0.0,-12077.0,4059.0,-3789.0,9578.0,-6574.0,10811.0,-9197.0,4871.0,63.0
97880171508.0,218.0,-4054.0,-778.0,78.0,52.0,27.0,-364.0,616.0,538.0,3958.0,264.0,9287.0,9681735.0,728.0,0.0,-12064.0,4070.0,-3798.0,9585.0,-6561.0,10808.0,-9207.0,4874.0,63.0
97880191528.0,228.0,-4042.0,-782.0,61.0,50.0,21.0,-365.0,618.0,537.0,3964.0,263.0,9280.0,9681735.0,728.0,0.0,-12055.0,4076.0,-3806.0,9591.0,-6551.0,10806.0,-9217.0,4875.0,63.0
97880211547.0,231.0,-4052.0,-763.0,47.0,50.0,18.0,-364.0,621.0,535.0,3967.0,262.0,9274.0,9681549.0,728.0,0.0,-12047.0,4081.0,-3812.0,9596.0,-6541.0,10805.0,-9226.0,4874.0,63.0
97880231567.0,219.0,-3994.0,-735.0,35.0,43.0,11.0,-363.0,627.0,534.0,3972.0,262.0,9269.0,9681549.0,728.0,0.0,-12040.0,4086.0,-3818.0,9600.0,-6533.0,10804.0,-9233.0,4873.0,63.0
97880251586.0,239.0,-4041.0,-711.0,49.0,34.0,11.0,-364.0,631.0,533.0,3976.0,262.0,9263.0,9681549.0,728.0,0.0,-12033.0,4089.0,-3824.0,9606.0,-6525.0,10802.0,-9241.0,4874.0,63.0
97880271606.0,231.0,-4006.0,-722.0,63.0,22.0,8.0,-364.0,630.0,534.0,3978.0,261.0,9256.0,9681549.0,728.0,0.0,-12025.0,4090.0,-3830.0,9613.0,-6518.0,10798.0,-9249.0,4876.0,63.0
97880291625.0,238.0,-4012.0,-712.0,75.0,14.0,8.0,-367.0,632.0,531.0,3986.0,261.0,9248.0,9681574.0,728.0,0.0,-12014.0,4098.0,-3840.0,9620.0,-6512.0,10792.0,-9259.0,4880.0,63.0
97880311645.0,223.0,-4024.0,-757.0,81.0,12.0,0.0,-368.0,634.0,531.0,3990.0,260.0,9240.0,9681574.0,728.0,0.0,-12004.0,4101.0,-3848.0,9627.0,-6507.0,10785.0,-9268.0,4884.0,63.0
97880331665.0,219.0,-3972.0,-745.0,75.0,17.0,10.0,-366.0,637.0,532.0,3985.0,260.0,9232.0,9681574.0,728.0,0.0,-11998.0,4093.0,-3846.0,9638.0,-6500.0,10779.0,-9277.0,4888.0,63.0
97880351684.0,227.0,-4064.0,-756.0,55.0,21.0,29.0,-367.0,640.0,533.0,3979.0,256.0,9222.0,9681574.0,728.0,0.0,-11988.0,4094.0,-3846.0,9651.0,-6488.0,10774.0,-9288.0,4895.0,63.0
97880371704.0,228.0,-4084.0,-721.0,29.0,17.0,18.0,-367.0,640.0,532.0,3979.0,254.0,9217.0,9681605.0,728.0,0.0,-11982.0,4097.0,-3848.0,9656.0,-6482.0,10773.0,-9293.0,4898.0,63.0
97880391723.0,226.0,-4131.0,-756.0,-3.0,4.0,21.0,-365.0,642.0,532.0,3978.0,252.0,9216.0,9681605.0,728.0,0.0,-11980.0,4100.0,-3847.0,9658.0,-6478.0,10774.0,-9292.0,4900.0,63.0
97880411743.0,230.0,-4063.0,-720.0,-44.0,-5.0,18.0,-369.0,644.0,533.0,3976.0,250.0,9219.0,9681605.0,728.0,0.0,-11983.0,4103.0,-3844.0,9655.0,-6478.0,10778.0,-9287.0,4900.0,63.0
97880431762.0,218.0,-4044.0,-699.0,-59.0,-18.0,9.0,-362.0,641.0,536.0,3973.0,249.0,9225.0,9681605.0,728.0,0.0,-11988.0,4105.0,-3838.0,9650.0,-6481.0,10784.0,-9279.0,4899.0,63.0
97880451782.0,231.0,-3988.0,-704.0,-43.0,-33.0,12.0,-367.0,639.0,534.0,3968.0,247.0,9230.0,9681656.0,728.0,0.0,-11993.0,4104.0,-3832.0,9645.0,-6485.0,10788.0,-9271.0,4900.0,63.0
97880471801.0,211.0,-3983.0,-741.0,-18.0,-45.0,11.0,-367.0,635.0,534.0,3961.0,245.0,9233.0,9681656.0,728.0,0.0,-11997.0,4103.0,-3824.0,9645.0,-6489.0,10789.0,-9264.0,4904.0,63.0
97880491821.0,206.0,-3991.0,-764.0,-2.0,-52.0,8.0,-366.0,631.0,530.0,3953.0,243.0,9234.0,9681656.0,728.0,0.0,-11999.0,4099.0,-3817.0,9647.0,-6494.0,10788.0,-9259.0,4911.0,63.0
97880511840.0,190.0,-3973.0,-783.0,2.0,-55.0,21.0,-364.0,633.0,533.0,3943.0,240.0,9234.0,9681656.0,728.0,0.0,-12001.0,4095.0,-3808.0,9650.0,-6497.0,10787.0,-9254.0,4919.0,63.0
97880531860.0,184.0,-3998.0,-794.0,-1.0,-52.0,32.0,-363.0,634.0,534.0,3932.0,235.0,9235.0,9681635.0,728.0,0.0,-12001.0,4094.0,-3798.0,9653.0,-6499.0,10787.0,-9248.0,4928.0,63.0
97880551879.0,177.0,-4024.0,-793.0,-4.0,-42.0,27.0,-362.0,634.0,536.0,3923.0,231.0,9235.0,9681635.0,728.0,0.0,-12002.0,4093.0,-3788.0,9656.0,-6500.0,10787.0,-9242.0,4936.0,63.0
97880571899.0,184.0,-4008.0,-812.0,-6.0,-30.0,20.0,-360.0,633.0,533.0,3916.0,228.0,9236.0,9681635.0,728.0,0.0,-12003.0,4093.0,-3782.0,9658.0,-6502.0,10788.0,-9238.0,4941.0,63.0
97880591918.0,191.0,-4043.0,-800.0,-17.0,-15.0,10.0,-359.0,634.0,533.0,3912.0,226.0,9237.0,9681635.0,728.0,0.0,-12005.0,4093.0,-3777.0,9658.0,-6503.0,10790.0,-9234.0,4944.0,63.0
97880611938.0,200.0,-4043.0,-829.0,-13.0,-9.0,3.0,-359.0,633.0,535.0,3910.0,225.0,9240.0,9681842.0,728.0,0.0,-12007.0,4093.0,-3775.0,9656.0,-6505.0,10791.0,-9230.0,4944.0,63.0
97880631958.0,203.0,-4024.0,-795.0,-11.0,5.0,-6.0,-360.0,630.0,534.0,3911.0,226.0,9240.0,9681842.0,728.0,0.0,-12008.0,4092.0,-3776.0,9654.0,-6506.0,10792.0,-9229.0,4942.0,63.0
97880651977.0,188.0,-4018.0,-811.0,-9.0,10.0,-6.0,-359.0,628.0,537.0,3913.0,227.0,9242.0,9681842.0,728.0,0.0,-12009.0,4093.0,-3777.0,9653.0,-6506.0,10794.0,-9228.0,4940.0,63.0
97880671997.0,203.0,-4038.0,-788.0,-2.0,19.0,4.0,-362.0,630.0,537.0,3916.0,227.0,9241.0,9681842.0,728.0,0.0,-12008.0,4095.0,-3779.0,9652.0,-6505.0,10795.0,-9229.0,4938.0,63.0
97880692016.0,200.0,-4034.0,-787.0,-1.0,25.0,3.0,-363.0,631.0,535.0,3919.0,228.0,9241.0,9681575.0,728.0,0.0,-12007.0,4097.0,-3782.0,9651.0,-6502.0,10797.0,-9230.0,4935.0,63.0
97880712036.0,205.0,-4029.0,-782.0,0.0,22.0,-3.0,-366.0,632.0,534.0,3922.0,229.0,9241.0,9681575.0,728.0,0.0,-12006.0,4099.0,-3785.0,9650.0,-6500.0,10798.0,-9231.0,4932.0,63.0
97880732055.0,220.0,-4015.0,-775.0,0.0,26.0,-1.0,-364.0,633.0,532.0,3927.0,230.0,9240.0,9681575.0,728.0,0.0,-12005.0,4101.0,-3790.0,9649.0,-6498.0,10799.0,-9233.0,4929.0,63.0
97880752075.0,198.0,-4027.0,-758.0,0.0,28.0,0.0,-365.0,629.0,533.0,3930.0,230.0,9240.0,9681575.0,728.0,0.0,-12004.0,4104.0,-3793.0,9648.0,-6495.0,10801.0,-9235.0,4926.0,63.0
97880772094.0,214.0,-4015.0,-752.0,-2.0,23.0,0.0,-364.0,631.0,532.0,3934.0,231.0,9239.0,9681609.0,728.0,0.0,-12002.0,4106.0,-3797.0,9647.0,-6493.0,10802.0,-9237.0,4923.0,63.0
97880792114.0,212.0,-4029.0,-749.0,-2.0,20.0,1.0,-361.0,632.0,532.0,3937.0,232.0,9239.0,9681609.0,728.0,0.0,-12001.0,4108.0,-3800.0,9647.0,-6491.0,10803.0,-9238.0,4920.0,63.0
97880812133.0,218.0,-4040.0,-748.0,-5.0,14.0,0.0,-361.0,633.0,531.0,3940.0,232.0,9239.0,9681609.0,728.0,0.0,-12001.0,4109.0,-3802.0,9646.0,-6490.0,10804.0,-9239.0,4918.0,63.0
97880832153.0,213.0,-4038.0,-755.0,-10.0,10.0,-7.0,-361.0,636.0,533.0,3942.0,234.0,9240.0,9681609.0,728.0,0.0,-12001.0,4110.0,-3804.0,9644.0,-6490.0,10806.0,-9239.0,4916.0,63.0
97880852172.0,203.0,-4029.0,-762.0,-18.0,5.0,-7.0,-361.0,636.0,534.0,3944.0,235.0,9241.0,9681494.0,728.0,0.0,-12003.0,4110.0,-3805.0,9642.0,-6491.0,10807.0,-9237.0,4913.0,63.0
97880872192.0,198.0,-4033.0,-788.0,-19.0,6.0,3.0,-363.0,634.0,536.0,3945.0,235.0,9243.0,9681494.0,728.0,0.0,-12005.0,4111.0,-3805.0,9639.0,-6492.0,10810.0,-9235.0,4911.0,63.0
97880892211.0,180.0,-4020.0,-779.0,-22.0,12.0,4.0,-359.0,636.0,532.0,3946.0,234.0,9245.0,9681494.0,728.0,0.0,-12006.0,4114.0,-3805.0,9637.0,-6491.0,10813.0,-9233.0,4909.0,63.0
97880912231.0,187.0,-4019.0,-788.0,-27.0,25.0,10.0,-358.0,639.0,531.0,3948.0,234.0,9248.0,9681494.0,728.0,0.0,-12007.0,4118.0,-3805.0,9633.0,-6490.0,10818.0,-9230.0,4906.0,63.0
97880932250.0,186.0,-4006.0,-776.0,-27.0,34.0,18.0,-360.0,639.0,531.0,3950.0,233.0,9251.0,9681549.0,728.0,0.0,-12008.0,4124.0,-3807.0,9629.0,-6486.0,10824.0,-9228.0,4902.0,63.0
97880952270.0,180.0,-4027.0,-773.0,-23.0,37.0,15.0,-362.0,635.0,534.0,3954.0,232.0,9253.0,9681549.0,728.0,0.0,-12007.0,4131.0,-3809.0,9626.0,-6481.0,10829.0,-9227.0,4898.0,63.0
97880972290.0,193.0,-4000.0,-763.0,-21.0,39.0,9.0,-363.0,634.0,530.0,3958.0,232.0,9254.0,9681549.0,728.0,0.0,-12007.0,4137.0,-3812.0,9622.0,-6477.0,10834.0,-9227.0,4893.0,63.0
97880992309.0,189.0,-4018.0,-774.0,-17.0,39.0,15.0,-362.0,631.0,531.0,3962.0,231.0,9256.0,9681549.0,728.0,0.0,-12007.0,4144.0,-3815.0,9619.0,-6473.0,10839.0,-9226.0,4889.0,63.0
97881012329.0,187.0,-4006.0,-794.0,-13.0,40.0,15.0,-362.0,632.0,534.0,3966.0,230.0,9258.0,9681669.0,728.0,0.0,-12006.0,4150.0,-3818.0,9616.0,-6468.0,10844.0,-9226.0,4885.0,63.0
97881032348.0,174.0,-3961.0,-772.0,-13.0,43.0,15.0,-363.0,635.0,533.0,3970.0,229.0,9258.0,9681669.0,728.0,0.0,-12005.0,4157.0,-3821.0,9613.0,-6463.0,10849.0,-9226.0,4881.0,63.0
97881052368.0,193.0,-4018.0,-788.0,-9.0,43.0,30.0,-369.0,635.0,534.0,3973.0,228.0,9259.0,9681669.0,728.0,0.0,-12003.0,4165.0,-3824.0,9611.0,-6456.0,10854.0,-9226.0,4877.0,63.0
97881072387.0,188.0,-4005.0,-775.0,-4.0,42.0,24.0,-373.0,633.0,532.0,3976.0,226.0,9259.0,9681669.0,728.0,0.0,-12000.0,4172.0,-3827.0,9610.0,-6449.0,10859.0,-9227.0,4875.0,63.0
97881092407.0,201.0,-4028.0,-778.0,5.0,36.0,23.0,-369.0,634.0,533.0,3979.0,224.0,9258.0,9681902.0,728.0,0.0,-11997.0,4179.0,-3830.0,9610.0,-6443.0,10862.0,-9229.0,4873.0,63.0
97881112426.0,201.0,-4030.0,-768.0,14.0,27.0,13.0,-367.0,637.0,533.0,3982.0,224.0,9256.0,9681902.0,728.0,0.0,-11994.0,4183.0,-3833.0,9611.0,-6437.0,10863.0,-9232.0,4872.0,63.0
97881132446.0,189.0,-4019.0,-783.0,17.0,18.0,11.0,-368.0,637.0,531.0,3983.0,223.0,9254.0,9681902.0,728.0,0.0,-11990.0,4186.0,-3835.0,9613.0,-6433.0,10863.0,-9234.0,4872.0,63.0
97881152465.0,193.0,-4012.0,-773.0,18.0,16.0,13.0,-366.0,638.0,534.0,3984.0,222.0,9252.0,9681902.0,728.0,0.0,-11987.0,4188.0,-3837.0,9616.0,-6429.0,10863.0,-9237.0,4872.0,63.0
97881172485.0,187.0,-4016.0,-775.0,19.0,15.0,20.0,-365.0,634.0,533.0,3984.0,220.0,9249.0,9681650.0,728.0,0.0,-11983.0,4191.0,-3838.0,9619.0,-6425.0,10864.0,-9238.0,4874.0,63.0
97881192504.0,194.0,-4032.0,-775.0,23.0,14.0,15.0,-367.0,631.0,533.0,3984.0,219.0,9246.0,9681650.0,728.0,0.0,-11979.0,4193.0,-3839.0,9622.0,-6420.0,10863.0,-9241.0,4876.0,63.0
97881212524.0,191.0,-4025.0,-770.0,20.0,16.0,8.0,-367.0,635.0,531.0,3985.0,218.0,9243.0,9681650.0,728.0,0.0,-11976.0,4195.0,-3841.0,9625.0,-6416.0,10863.0,-9244.0,4876.0,63.0
97881232543.0,194.0,-4028.0,-761.0,16.0,14.0,6.0,-368.0,634.0,529.0,3986.0,218.0,9241.0,9681650.0,728.0,0.0,-11973.0,4196.0,-3844.0,9627.0,-6413.0,10862.0,-9247.0,4877.0,63.0
97881252563.0,196.0,-4035.0,-763.0,12.0,7.0,7.0,-368.0,628.0,529.0,3987.0,218.0,9239.0,9681716.0,728.0,0.0,-11970.0,4197.0,-3845.0,9629.0,-6411.0,10862.0,-9249.0,4877.0,63.0
97881272583.0,198.0,-4032.0,-755.0,11.0,0.0,3.0,-369.0,632.0,528.0,3987.0,217.0,9237.0,9681716.0,728.0,0.0,-11968.0,4197.0,-3846.0,9631.0,-6409.0,10861.0,-9250.0,4878.0,63.0
97881292602.0,200.0,-4052.0,-771.0,10.0,-2.0,-2.0,-368.0,634.0,526.0,3987.0,218.0,9235.0,9681716.0,728.0,0.0,-11967.0,4195.0,-3847.0,9633.0,-6410.0,10860.0,-9251.0,4878.0,63.0
97881312622.0,203.0,-4048.0,-781.0,4.0,-4.0,-10.0,-365.0,636.0,525.0,3988.0,220.0,9233.0,9681716.0,728.0,0.0,-11966.0,4193.0,-3849.0,9634.0,-6411.0,10859.0,-9252.0,4878.0,63.0
97881332641.0,196.0,-4081.0,-778.0,0.0,-3.0,-17.0,-363.0,636.0,524.0,3990.0,221.0,9233.0,9681650.0,728.0,0.0,-11967.0,4190.0,-3850.0,9634.0,-6413.0,10857.0,-9252.0,4877.0,63.0
97881352661.0,202.0,-4029.0,-784.0,-5.0,0.0,-27.0,-367.0,637.0,524.0,3993.0,224.0,9234.0,9681650.0,728.0,0.0,-11968.0,4187.0,-3853.0,9633.0,-6417.0,10856.0,-9253.0,4874.0,63.0
97881372680.0,196.0,-4027.0,-772.0,-9.0,3.0,-22.0,-367.0,637.0,527.0,3996.0,227.0,9234.0,9681650.0,728.0,0.0,-11970.0,4184.0,-3856.0,9631.0,-6420.0,10856.0,-9253.0,4871.0,63.0
97881392700.0,203.0,-4017.0,-763.0,-13.0,0.0,-16.0,-364.0,637.0,525.0,3999.0,229.0,9235.0,9681650.0,728.0,0.0,-11972.0,4182.0,-3858.0,9629.0,-6422.0,10856.0,-9253.0,4868.0,63.0
97881412719.0,201.0,-4020.0,-766.0,-15.0,0.0,-6.0,-365.0,635.0,529.0,4000.0,230.0,9237.0,9681560.0,728.0,0.0,-11973.0,4181.0,-3858.0,9627.0,-6424.0,10857.0,-9251.0,4866.0,63.0
97881432739.0,197.0,-4014.0,-755.0,-12.0,0.0,0.0,-365.0,636.0,526.0,4000.0,231.0,9238.0,9681560.0,728.0,0.0,-11974.0,4181.0,-3858.0,9626.0,-6425.0,10858.0,-9250.0,4865.0,63.0
97881452758.0,198.0,-4024.0,-767.0,-6.0,-1.0,3.0,-368.0,636.0,526.0,4000.0,231.0,9237.0,9681560.0,728.0,0.0,-11974.0,4181.0,-3858.0,9626.0,-6425.0,10859.0,-9249.0,4865.0,63.0
97881472778.0,187.0,-4016.0,-759.0,-8.0,0.0,-4.0,-366.0,638.0,523.0,4000.0,231.0,9237.0,9681560.0,728.0,0.0,-11974.0,4180.0,-3858.0,9626.0,-6426.0,10859.0,-9247.0,4865.0,63.0
