Timestamp,Accelerometer X,Accelerometer Y,Accelerometer Z,Gyroscope X,Gyroscope Y,Gyroscope Z,Magnetometer X,Magnetometer Y,Magnetometer Z,Euler X,Euler Y,Euler Z,Pressure,Step count,Activity,Rotation Vector X,Rotation Vector Y,Rotation Vector Z,Rotation Vector W,Game Rotation Vector X,Game Rotation Vector Y,Game Rotation Vector Z,Game Rotation Vector W,Calibration
97704500122.0,234.0,-4026.0,-727.0,18.0,-3.0,-6.0,-396.0,639.0,499.0,4414.0,312.0,9130.0,9682052.0,721.0,0.0,-11773.0,4422.0,-4284.0,9587.0,-7476.0,10110.0,-8810.0,5717.0,63.0
97704520355.0,236.0,-4040.0,-729.0,15.0,-2.0,2.0,-395.0,639.0,495.0,4413.0,312.0,9128.0,9682052.0,721.0,0.0,-11771.0,4421.0,-4284.0,9589.0,-7475.0,10108.0,-8812.0,5719.0,63.0
97704540161.0,235.0,-4020.0,-726.0,11.0,0.0,8.0,-392.0,638.0,497.0,4412.0,311.0,9127.0,9682213.0,721.0,0.0,-11769.0,4422.0,-4284.0,9591.0,-7474.0,10107.0,-8812.0,5721.0,63.0
97704560180.0,237.0,-4026.0,-703.0,11.0,2.0,15.0,-390.0,640.0,496.0,4411.0,310.0,9125.0,9682213.0,721.0,0.0,-11767.0,4423.0,-4284.0,9593.0,-7471.0,10107.0,-8813.0,5723.0,63.0
97704580200.0,228.0,-4053.0,-711.0,7.0,4.0,11.0,-394.0,642.0,496.0,4410.0,308.0,9124.0,9682213.0,721.0,0.0,-11765.0,4425.0,-4283.0,9595.0,-7469.0,10108.0,-8813.0,5725.0,63.0
97704600219.0,241.0,-4046.0,-713.0,0.0,3.0,2.0,-395.0,638.0,501.0,4409.0,308.0,9123.0,9682213.0,721.0,0.0,-11764.0,4425.0,-4283.0,9596.0,-7467.0,10108.0,-8814.0,5725.0,63.0
97704620239.0,236.0,-4042.0,-710.0,-6.0,-2.0,-1.0,-395.0,639.0,502.0,4409.0,307.0,9123.0,9682178.0,721.0,0.0,-11764.0,4426.0,-4283.0,9596.0,-7467.0,10108.0,-8814.0,5726.0,63.0
97704640258.0,225.0,-4039.0,-701.0,-9.0,-6.0,-7.0,-397.0,639.0,502.0,4409.0,308.0,9124.0,9682178.0,721.0,0.0,-11765.0,4425.0,-4282.0,9595.0,-7469.0,10108.0,-8813.0,5726.0,63.0
97704660278.0,229.0,-4007.0,-718.0,-7.0,-13.0,-2.0,-396.0,635.0,497.0,4408.0,308.0,9125.0,9682178.0,721.0,0.0,-11767.0,4423.0,-4281.0,9594.0,-7471.0,10108.0,-8811.0,5725.0,63.0
97704680297.0,228.0,-4059.0,-748.0,-10.0,-11.0,-6.0,-390.0,638.0,502.0,4407.0,308.0,9127.0,9682178.0,721.0,0.0,-11769.0,4422.0,-4279.0,9593.0,-7473.0,10108.0,-8809.0,5726.0,63.0
97704700317.0,235.0,-4039.0,-759.0,-16.0,-5.0,-10.0,-386.0,638.0,498.0,4407.0,309.0,9129.0,9682244.0,721.0,0.0,-11772.0,4421.0,-4278.0,9590.0,-7476.0,10109.0,-8807.0,5724.0,63.0
97704720336.0,223.0,-4048.0,-758.0,-18.0,7.0,-21.0,-388.0,638.0,497.0,4409.0,311.0,9131.0,9682244.0,721.0,0.0,-11774.0,4420.0,-4279.0,9587.0,-7479.0,10109.0,-8806.0,5721.0,63.0
97704740356.0,239.0,-4003.0,-748.0,-14.0,17.0,-20.0,-392.0,642.0,496.0,4414.0,314.0,9133.0,9682244.0,721.0,0.0,-11777.0,4420.0,-4283.0,9583.0,-7481.0,10110.0,-8807.0,5715.0,63.0
97704760375.0,256.0,-4019.0,-740.0,-11.0,16.0,-1.0,-394.0,644.0,500.0,4420.0,316.0,9135.0,9682244.0,721.0,0.0,-11778.0,4422.0,-4287.0,9579.0,-7481.0,10112.0,-8808.0,5710.0,63.0
97704780395.0,267.0,-4018.0,-733.0,-7.0,14.0,2.0,-393.0,642.0,504.0,4422.0,316.0,9136.0,9682253.0,721.0,0.0,-11778.0,4424.0,-4288.0,9577.0,-7480.0,10114.0,-8808.0,5707.0,63.0
97704800415.0,264.0,-4027.0,-732.0,-7.0,8.0,-2.0,-392.0,642.0,505.0,4423.0,316.0,9136.0,9682253.0,721.0,0.0,-11778.0,4425.0,-4289.0,9576.0,-7480.0,10115.0,-8808.0,5705.0,63.0
97704820434.0,262.0,-4011.0,-731.0,-6.0,0.0,-7.0,-392.0,644.0,504.0,4425.0,318.0,9137.0,9682253.0,721.0,0.0,-11779.0,4424.0,-4291.0,9575.0,-7481.0,10115.0,-8809.0,5704.0,63.0
97704840454.0,263.0,-4020.0,-740.0,-8.0,-7.0,-4.0,-394.0,640.0,504.0,4425.0,319.0,9138.0,9682253.0,721.0,0.0,-11781.0,4423.0,-4290.0,9573.0,-7483.0,10115.0,-8808.0,5703.0,63.0
97704860473.0,245.0,-4021.0,-755.0,-8.0,-11.0,-6.0,-393.0,640.0,505.0,4424.0,319.0,9139.0,9682213.0,721.0,0.0,-11783.0,4422.0,-4289.0,9572.0,-7485.0,10115.0,-8806.0,5703.0,63.0
97704880493.0,249.0,-4015.0,-761.0,-7.0,-9.0,-7.0,-390.0,642.0,504.0,4424.0,319.0,9141.0,9682213.0,721.0,0.0,-11785.0,4420.0,-4288.0,9571.0,-7488.0,10115.0,-8804.0,5702.0,63.0
97704900512.0,250.0,-4019.0,-766.0,-6.0,-3.0,-4.0,-389.0,639.0,506.0,4424.0,320.0,9142.0,9682213.0,721.0,0.0,-11787.0,4419.0,-4287.0,9569.0,-7490.0,10115.0,-8803.0,5701.0,63.0
97704920532.0,243.0,-4018.0,-773.0,-2.0,4.0,-2.0,-391.0,639.0,507.0,4424.0,320.0,9143.0,9682213.0,721.0,0.0,-11788.0,4420.0,-4287.0,9568.0,-7490.0,10116.0,-8802.0,5700.0,63.0
97704940551.0,255.0,-4013.0,-758.0,0.0,10.0,-2.0,-390.0,638.0,506.0,4426.0,321.0,9144.0,9681931.0,721.0,0.0,-11788.0,4420.0,-4288.0,9566.0,-7490.0,10117.0,-8802.0,5698.0,63.0
97704960571.0,259.0,-4019.0,-754.0,1.0,12.0,2.0,-390.0,640.0,501.0,4428.0,321.0,9144.0,9681931.0,721.0,0.0,-11788.0,4422.0,-4290.0,9566.0,-7489.0,10118.0,-8803.0,5697.0,63.0
97704980590.0,269.0,-4023.0,-750.0,4.0,11.0,6.0,-391.0,637.0,504.0,4429.0,321.0,9144.0,9681931.0,721.0,0.0,-11787.0,4423.0,-4291.0,9566.0,-7488.0,10119.0,-8804.0,5696.0,63.0
97705000610.0,268.0,-4021.0,-742.0,6.0,10.0,4.0,-391.0,638.0,505.0,4430.0,321.0,9143.0,9681931.0,721.0,0.0,-11785.0,4424.0,-4293.0,9566.0,-7486.0,10119.0,-8805.0,5695.0,63.0
97705020629.0,273.0,-4016.0,-736.0,5.0,6.0,3.0,-396.0,637.0,509.0,4432.0,321.0,9142.0,9682078.0,721.0,0.0,-11785.0,4425.0,-4294.0,9566.0,-7485.0,10119.0,-8807.0,5695.0,63.0
97705040649.0,270.0,-4022.0,-741.0,4.0,1.0,2.0,-395.0,637.0,501.0,4432.0,322.0,9142.0,9682078.0,721.0,0.0,-11784.0,4425.0,-4295.0,9566.0,-7485.0,10119.0,-8808.0,5694.0,63.0
97705060668.0,265.0,-4022.0,-730.0,8.0,-2.0,2.0,-397.0,637.0,498.0,4432.0,322.0,9141.0,9682078.0,721.0,0.0,-11783.0,4424.0,-4296.0,9568.0,-7484.0,10117.0,-8809.0,5695.0,63.0
97705080688.0,258.0,-3993.0,-720.0,9.0,-7.0,6.0,-396.0,636.0,498.0,4431.0,321.0,9139.0,9682078.0,721.0,0.0,-11782.0,4423.0,-4295.0,9569.0,-7484.0,10116.0,-8809.0,5697.0,63.0
97705100708.0,247.0,-4030.0,-752.0,10.0,-11.0,15.0,-396.0,639.0,500.0,4428.0,320.0,9139.0,9681916.0,721.0,0.0,-11781.0,4423.0,-4292.0,9571.0,-7483.0,10116.0,-8808.0,5700.0,63.0
97705120727.0,245.0,-4036.0,-755.0,7.0,-11.0,12.0,-395.0,638.0,500.0,4425.0,318.0,9138.0,9681916.0,721.0,0.0,-11780.0,4424.0,-4290.0,9574.0,-7482.0,10116.0,-8807.0,5703.0,63.0
97705140747.0,232.0,-4056.0,-740.0,13.0,-5.0,4.0,-393.0,637.0,500.0,4422.0,317.0,9136.0,9681916.0,721.0,0.0,-11779.0,4423.0,-4289.0,9576.0,-7481.0,10115.0,-8807.0,5706.0,63.0
97705160766.0,231.0,-4040.0,-734.0,15.0,0.0,-9.0,-398.0,638.0,499.0,4423.0,317.0,9135.0,9681916.0,721.0,0.0,-11778.0,4422.0,-4290.0,9578.0,-7481.0,10113.0,-8809.0,5707.0,63.0
97705180786.0,238.0,-4035.0,-735.0,12.0,0.0,0.0,-396.0,639.0,499.0,4423.0,318.0,9133.0,9682157.0,721.0,0.0,-11777.0,4421.0,-4291.0,9579.0,-7481.0,10111.0,-8811.0,5707.0,63.0
97705200805.0,233.0,-4017.0,-725.0,7.0,2.0,2.0,-393.0,641.0,498.0,4422.0,317.0,9132.0,9682157.0,721.0,0.0,-11775.0,4421.0,-4291.0,9581.0,-7479.0,10111.0,-8811.0,5709.0,63.0
97705220825.0,249.0,-4015.0,-701.0,11.0,2.0,8.0,-392.0,642.0,502.0,4422.0,316.0,9131.0,9682157.0,721.0,0.0,-11774.0,4421.0,-4291.0,9583.0,-7478.0,10110.0,-8813.0,5710.0,63.0
97705240844.0,240.0,-4035.0,-711.0,13.0,2.0,8.0,-395.0,642.0,503.0,4421.0,316.0,9129.0,9682157.0,721.0,0.0,-11772.0,4422.0,-4291.0,9585.0,-7476.0,10110.0,-8814.0,5712.0,63.0
97705260864.0,249.0,-4033.0,-713.0,7.0,-2.0,6.0,-396.0,640.0,499.0,4420.0,315.0,9128.0,9682369.0,721.0,0.0,-11770.0,4422.0,-4291.0,9587.0,-7474.0,10109.0,-8815.0,5713.0,63.0
97705280883.0,241.0,-4048.0,-715.0,-8.0,-11.0,6.0,-393.0,646.0,497.0,4418.0,314.0,9128.0,9682369.0,721.0,0.0,-11770.0,4422.0,-4289.0,9587.0,-7474.0,10109.0,-8814.0,5715.0,63.0
97705300903.0,243.0,-4051.0,-721.0,-17.0,-16.0,0.0,-390.0,642.0,496.0,4416.0,313.0,9130.0,9682369.0,721.0,0.0,-11773.0,4422.0,-4286.0,9586.0,-7477.0,10110.0,-8811.0,5716.0,63.0
97705320922.0,236.0,-4017.0,-740.0,-19.0,-15.0,-6.0,-391.0,642.0,497.0,4414.0,314.0,9132.0,9682369.0,721.0,0.0,-11776.0,4420.0,-4283.0,9584.0,-7480.0,10111.0,-8807.0,5715.0,63.0
97705340942.0,224.0,-4044.0,-748.0,-17.0,-11.0,-8.0,-389.0,643.0,497.0,4413.0,314.0,9135.0,9682073.0,721.0,0.0,-11778.0,4419.0,-4281.0,9582.0,-7483.0,10111.0,-8804.0,5715.0,63.0
97705360961.0,233.0,-4017.0,-761.0,-17.0,-5.0,-2.0,-387.0,641.0,498.0,4413.0,314.0,9137.0,9682073.0,721.0,0.0,-11781.0,4419.0,-4280.0,9579.0,-7485.0,10113.0,-8801.0,5713.0,63.0
97705380981.0,230.0,-4048.0,-763.0,-12.0,4.0,-10.0,-388.0,645.0,499.0,4414.0,315.0,9139.0,9682073.0,721.0,0.0,-11783.0,4419.0,-4280.0,9577.0,-7487.0,10114.0,-8800.0,5711.0,63.0
97705401000.0,241.0,-4008.0,-752.0,-6.0,14.0,-16.0,-391.0,646.0,501.0,4418.0,317.0,9140.0,9682073.0,721.0,0.0,-11784.0,4418.0,-4283.0,9574.0,-7488.0,10114.0,-8801.0,5708.0,63.0
97705421020.0,250.0,-4024.0,-748.0,-4.0,13.0,-6.0,-392.0,642.0,497.0,4421.0,319.0,9140.0,9682061.0,721.0,0.0,-11785.0,4419.0,-4286.0,9573.0,-7488.0,10114.0,-8803.0,5705.0,63.0
97705441040.0,261.0,-4018.0,-747.0,-4.0,10.0,0.0,-394.0,637.0,492.0,4423.0,319.0,9141.0,9682061.0,721.0,0.0,-11785.0,4420.0,-4287.0,9571.0,-7488.0,10115.0,-8803.0,5703.0,63.0
97705461059.0,267.0,-4012.0,-732.0,-2.0,7.0,0.0,-394.0,640.0,491.0,4425.0,320.0,9141.0,9682061.0,721.0,0.0,-11785.0,4420.0,-4289.0,9570.0,-7488.0,10116.0,-8804.0,5701.0,63.0
97705481079.0,264.0,-4026.0,-733.0,-1.0,1.0,-2.0,-395.0,638.0,496.0,4426.0,321.0,9141.0,9682061.0,721.0,0.0,-11785.0,4420.0,-4290.0,9570.0,-7488.0,10115.0,-8805.0,5700.0,63.0
97705501098.0,262.0,-4022.0,-745.0,-3.0,-3.0,-1.0,-398.0,635.0,498.0,4427.0,321.0,9142.0,9682073.0,721.0,0.0,-11786.0,4419.0,-4290.0,9569.0,-7489.0,10115.0,-8804.0,5699.0,63.0
97705521209.0,256.0,-4024.0,-747.0,-4.0,-10.0,0.0,-398.0,639.0,501.0,4426.0,321.0,9142.0,9682073.0,721.0,0.0,-11787.0,4418.0,-4289.0,9569.0,-7491.0,10115.0,-8803.0,5699.0,63.0
97705541137.0,245.0,-4025.0,-756.0,-5.0,-12.0,-2.0,-399.0,642.0,499.0,4424.0,321.0,9143.0,9682073.0,721.0,0.0,-11788.0,4417.0,-4287.0,9568.0,-7492.0,10115.0,-8801.0,5700.0,63.0
97705561157.0,246.0,-4014.0,-761.0,-5.0,-10.0,-1.0,-400.0,642.0,505.0,4423.0,321.0,9144.0,9682073.0,721.0,0.0,-11790.0,4416.0,-4285.0,9567.0,-7494.0,10115.0,-8800.0,5700.0,63.0
97705581237.0,242.0,-4032.0,-764.0,-4.0,-5.0,-2.0,-399.0,643.0,504.0,4422.0,321.0,9145.0,9681916.0,721.0,0.0,-11791.0,4416.0,-4284.0,9567.0,-7496.0,10116.0,-8798.0,5700.0,63.0
97705601226.0,245.0,-4024.0,-763.0,-3.0,1.0,-1.0,-399.0,642.0,504.0,4422.0,321.0,9146.0,9681916.0,721.0,0.0,-11792.0,4416.0,-4283.0,9565.0,-7496.0,10116.0,-8797.0,5700.0,63.0
97705621215.0,252.0,-4029.0,-765.0,0.0,8.0,-1.0,-400.0,642.0,497.0,4423.0,321.0,9147.0,9681916.0,721.0,0.0,-11793.0,4417.0,-4284.0,9564.0,-7496.0,10117.0,-8797.0,5698.0,63.0
97705641235.0,258.0,-4018.0,-753.0,0.0,11.0,-2.0,-398.0,642.0,495.0,4425.0,322.0,9147.0,9681916.0,721.0,0.0,-11793.0,4417.0,-4286.0,9563.0,-7496.0,10118.0,-8798.0,5697.0,63.0
97705661254.0,259.0,-4018.0,-743.0,2.0,11.0,1.0,-393.0,641.0,498.0,4427.0,323.0,9147.0,9682165.0,721.0,0.0,-11792.0,4418.0,-4287.0,9563.0,-7495.0,10118.0,-8799.0,5695.0,63.0
97705681274.0,266.0,-4015.0,-734.0,3.0,10.0,3.0,-394.0,641.0,500.0,4429.0,323.0,9147.0,9682165.0,721.0,0.0,-11791.0,4419.0,-4289.0,9563.0,-7494.0,10119.0,-8800.0,5694.0,63.0
97705701293.0,260.0,-4018.0,-741.0,4.0,6.0,2.0,-393.0,642.0,503.0,4429.0,323.0,9146.0,9682165.0,721.0,0.0,-11790.0,4420.0,-4290.0,9563.0,-7493.0,10119.0,-8801.0,5694.0,63.0
97705721313.0,260.0,-4027.0,-741.0,0.0,1.0,2.0,-395.0,641.0,499.0,4430.0,323.0,9146.0,9682165.0,721.0,0.0,-11790.0,4420.0,-4291.0,9563.0,-7492.0,10119.0,-8802.0,5694.0,63.0
97705741333.0,266.0,-4021.0,-735.0,0.0,-1.0,2.0,-396.0,638.0,499.0,4430.0,323.0,9146.0,9681841.0,721.0,0.0,-11790.0,4420.0,-4291.0,9563.0,-7492.0,10118.0,-8802.0,5694.0,63.0
97705761352.0,251.0,-4012.0,-733.0,0.0,-3.0,2.0,-396.0,637.0,498.0,4430.0,323.0,9145.0,9681841.0,721.0,0.0,-11790.0,4420.0,-4291.0,9564.0,-7492.0,10118.0,-8802.0,5694.0,63.0
97705781372.0,261.0,-4013.0,-738.0,0.0,-7.0,10.0,-398.0,639.0,501.0,4428.0,322.0,9145.0,9681841.0,721.0,0.0,-11790.0,4420.0,-4289.0,9564.0,-7492.0,10118.0,-8801.0,5695.0,63.0
97705801391.0,245.0,-4047.0,-759.0,-3.0,-9.0,8.0,-397.0,643.0,504.0,4425.0,321.0,9146.0,9681841.0,721.0,0.0,-11790.0,4420.0,-4287.0,9565.0,-7492.0,10119.0,-8799.0,5697.0,63.0
97705821716.0,239.0,-4048.0,-751.0,0.0,-7.0,5.0,-395.0,642.0,505.0,4424.0,320.0,9146.0,9682148.0,721.0,0.0,-11790.0,4421.0,-4285.0,9565.0,-7492.0,10119.0,-8797.0,5698.0,63.0
97705841430.0,245.0,-4021.0,-746.0,4.0,-7.0,-7.0,-397.0,641.0,506.0,4423.0,320.0,9146.0,9682148.0,721.0,0.0,-11791.0,4419.0,-4284.0,9565.0,-7493.0,10118.0,-8797.0,5699.0,63.0
97705861450.0,246.0,-4019.0,-732.0,10.0,-9.0,3.0,-398.0,640.0,506.0,4421.0,320.0,9145.0,9682148.0,721.0,0.0,-11790.0,4418.0,-4284.0,9567.0,-7493.0,10117.0,-8798.0,5701.0,63.0
97705881713.0,241.0,-4013.0,-736.0,11.0,-8.0,7.0,-396.0,639.0,502.0,4419.0,319.0,9144.0,9682148.0,721.0,0.0,-11789.0,4418.0,-4282.0,9569.0,-7493.0,10116.0,-8798.0,5704.0,63.0
97705901489.0,242.0,-4018.0,-721.0,15.0,-7.0,14.0,-398.0,641.0,506.0,4417.0,317.0,9142.0,9682093.0,721.0,0.0,-11787.0,4418.0,-4281.0,9573.0,-7491.0,10115.0,-8798.0,5707.0,63.0
97705921508.0,238.0,-4039.0,-731.0,11.0,-10.0,11.0,-399.0,639.0,508.0,4414.0,315.0,9140.0,9682093.0,721.0,0.0,-11785.0,4418.0,-4279.0,9575.0,-7490.0,10114.0,-8798.0,5711.0,63.0
97705941711.0,243.0,-4033.0,-733.0,3.0,-10.0,7.0,-397.0,641.0,509.0,4411.0,314.0,9140.0,9682093.0,721.0,0.0,-11785.0,4417.0,-4277.0,9577.0,-7490.0,10114.0,-8797.0,5713.0,63.0
97705961547.0,233.0,-4033.0,-742.0,-6.0,-13.0,2.0,-393.0,640.0,503.0,4409.0,313.0,9141.0,9682093.0,721.0,0.0,-11786.0,4417.0,-4274.0,9577.0,-7490.0,10114.0,-8795.0,5714.0,63.0
97705981567.0,225.0,-4033.0,-743.0,-13.0,-15.0,-1.0,-390.0,643.0,502.0,4406.0,313.0,9142.0,9682029.0,721.0,0.0,-11788.0,4416.0,-4271.0,9576.0,-7492.0,10114.0,-8792.0,5715.0,63.0
97706001739.0,220.0,-4003.0,-759.0,-15.0,-15.0,-3.0,-395.0,641.0,503.0,4405.0,313.0,9144.0,9682029.0,721.0,0.0,-11790.0,4415.0,-4269.0,9575.0,-7495.0,10115.0,-8789.0,5715.0,63.0
97706021606.0,217.0,-4042.0,-763.0,-14.0,-4.0,-7.0,-399.0,644.0,505.0,4404.0,313.0,9146.0,9682029.0,721.0,0.0,-11793.0,4415.0,-4267.0,9573.0,-7497.0,10116.0,-8787.0,5715.0,63.0
97706041625.0,230.0,-4028.0,-771.0,-14.0,0.0,-5.0,-398.0,643.0,504.0,4405.0,314.0,9148.0,9682029.0,721.0,0.0,-11795.0,4415.0,-4267.0,9570.0,-7499.0,10117.0,-8785.0,5713.0,63.0
97706061767.0,235.0,-4038.0,-772.0,-9.0,9.0,-12.0,-397.0,641.0,505.0,4407.0,315.0,9149.0,9681952.0,721.0,0.0,-11796.0,4415.0,-4268.0,9568.0,-7500.0,10117.0,-8785.0,5710.0,63.0
97706081665.0,241.0,-4013.0,-752.0,-2.0,17.0,-16.0,-395.0,642.0,504.0,4411.0,317.0,9150.0,9681952.0,721.0,0.0,-11797.0,4414.0,-4272.0,9566.0,-7501.0,10118.0,-8787.0,5706.0,63.0
97706101684.0,245.0,-4020.0,-759.0,0.0,17.0,-5.0,-392.0,643.0,500.0,4415.0,318.0,9150.0,9681952.0,721.0,0.0,-11796.0,4415.0,-4275.0,9564.0,-7500.0,10118.0,-8789.0,5703.0,63.0
97706121765.0,258.0,-4028.0,-738.0,0.0,13.0,-3.0,-393.0,643.0,503.0,4417.0,319.0,9150.0,9681952.0,721.0,0.0,-11796.0,4416.0,-4278.0,9564.0,-7499.0,10118.0,-8791.0,5701.0,63.0
97706141784.0,262.0,-4025.0,-737.0,-2.0,9.0,-2.0,-392.0,638.0,499.0,4420.0,320.0,9150.0,9682324.0,721.0,0.0,-11796.0,4416.0,-4280.0,9563.0,-7499.0,10119.0,-8792.0,5700.0,63.0
97706161773.0,257.0,-4027.0,-732.0,-6.0,4.0,-5.0,-391.0,637.0,502.0,4421.0,321.0,9150.0,9682324.0,721.0,0.0,-11796.0,4416.0,-4281.0,9562.0,-7499.0,10119.0,-8793.0,5698.0,63.0
97706181793.0,265.0,-4032.0,-737.0,-9.0,-4.0,-6.0,-390.0,634.0,508.0,4422.0,322.0,9150.0,9682324.0,721.0,0.0,-11797.0,4415.0,-4281.0,9561.0,-7501.0,10118.0,-8792.0,5697.0,63.0
97706201782.0,253.0,-4030.0,-756.0,-13.0,-11.0,-7.0,-388.0,635.0,512.0,4421.0,322.0,9152.0,9682324.0,721.0,0.0,-11799.0,4414.0,-4280.0,9559.0,-7503.0,10119.0,-8790.0,5696.0,63.0
97706221801.0,252.0,-4032.0,-764.0,-15.0,-10.0,-11.0,-385.0,634.0,511.0,4421.0,323.0,9154.0,9681982.0,721.0,0.0,-11802.0,4412.0,-4279.0,9557.0,-7507.0,10119.0,-8788.0,5695.0,63.0
97706241821.0,255.0,-4022.0,-774.0,-15.0,-5.0,-19.0,-386.0,634.0,508.0,4422.0,325.0,9157.0,9681982.0,721.0,0.0,-11805.0,4410.0,-4279.0,9554.0,-7510.0,10119.0,-8786.0,5693.0,63.0
97706261840.0,263.0,-4004.0,-777.0,-13.0,0.0,-16.0,-385.0,635.0,505.0,4424.0,327.0,9159.0,9681982.0,721.0,0.0,-11808.0,4408.0,-4279.0,9551.0,-7514.0,10119.0,-8785.0,5690.0,63.0
97706281860.0,258.0,-4004.0,-767.0,-10.0,5.0,-10.0,-385.0,633.0,505.0,4426.0,328.0,9160.0,9681982.0,721.0,0.0,-11809.0,4408.0,-4280.0,9549.0,-7515.0,10119.0,-8785.0,5688.0,63.0
97706301879.0,270.0,-4010.0,-762.0,-7.0,8.0,-3.0,-392.0,635.0,508.0,4428.0,329.0,9161.0,9681988.0,721.0,0.0,-11810.0,4408.0,-4282.0,9548.0,-7516.0,10120.0,-8785.0,5686.0,63.0
97706321899.0,273.0,-4005.0,-755.0,-5.0,7.0,0.0,-395.0,638.0,506.0,4430.0,330.0,9161.0,9681988.0,721.0,0.0,-11811.0,4409.0,-4283.0,9546.0,-7516.0,10121.0,-8785.0,5683.0,63.0
97706341918.0,282.0,-4011.0,-754.0,-1.0,4.0,7.0,-390.0,636.0,505.0,4431.0,330.0,9162.0,9681988.0,721.0,0.0,-11811.0,4410.0,-4284.0,9545.0,-7515.0,10121.0,-8786.0,5683.0,63.0
97706361938.0,272.0,-4006.0,-746.0,0.0,-1.0,7.0,-388.0,637.0,507.0,4430.0,330.0,9162.0,9681988.0,721.0,0.0,-11811.0,4410.0,-4284.0,9546.0,-7515.0,10121.0,-8786.0,5683.0,63.0
97706381958.0,275.0,-3998.0,-748.0,4.0,-10.0,8.0,-385.0,635.0,502.0,4429.0,329.0,9161.0,9682133.0,721.0,0.0,-11810.0,4409.0,-4282.0,9547.0,-7515.0,10121.0,-8785.0,5684.0,63.0
97706401977.0,259.0,-4019.0,-763.0,5.0,-15.0,11.0,-388.0,634.0,503.0,4425.0,328.0,9161.0,9682133.0,721.0,0.0,-11810.0,4409.0,-4279.0,9548.0,-7515.0,10121.0,-8783.0,5687.0,63.0
97706421997.0,258.0,-4016.0,-750.0,10.0,-18.0,9.0,-392.0,634.0,507.0,4422.0,326.0,9160.0,9682133.0,721.0,0.0,-11810.0,4408.0,-4277.0,9551.0,-7515.0,10119.0,-8783.0,5691.0,63.0
97706442016.0,241.0,-4014.0,-752.0,11.0,-19.0,9.0,-393.0,634.0,507.0,4418.0,324.0,9159.0,9682133.0,721.0,0.0,-11809.0,4407.0,-4273.0,9554.0,-7515.0,10118.0,-8781.0,5695.0,63.0
97706462036.0,250.0,-4012.0,-764.0,11.0,-21.0,25.0,-389.0,637.0,511.0,4412.0,322.0,9158.0,9681911.0,721.0,0.0,-11808.0,4407.0,-4269.0,9557.0,-7514.0,10118.0,-8779.0,5700.0,63.0
97706482055.0,239.0,-4087.0,-794.0,4.0,-10.0,18.0,-387.0,635.0,509.0,4408.0,319.0,9158.0,9681911.0,721.0,0.0,-11807.0,4409.0,-4265.0,9559.0,-7513.0,10118.0,-8777.0,5704.0,63.0
97706502075.0,228.0,-4035.0,-761.0,-2.0,1.0,-2.0,-391.0,634.0,509.0,4407.0,318.0,9159.0,9681992.0,721.0,0.0,-11808.0,4410.0,-4264.0,9558.0,-7513.0,10120.0,-8776.0,5705.0,63.0
97706522094.0,237.0,-4019.0,-752.0,2.0,0.0,4.0,-389.0,631.0,507.0,4406.0,318.0,9158.0,9681992.0,721.0,0.0,-11807.0,4410.0,-4263.0,9559.0,-7512.0,10120.0,-8776.0,5705.0,63.0
97706542114.0,228.0,-4041.0,-760.0,2.0,-2.0,8.0,-387.0,631.0,507.0,4404.0,316.0,9158.0,9681992.0,721.0,0.0,-11807.0,4411.0,-4262.0,9560.0,-7511.0,10121.0,-8775.0,5707.0,63.0
97706562133.0,230.0,-4035.0,-760.0,-1.0,-1.0,7.0,-386.0,635.0,507.0,4402.0,315.0,9158.0,9681992.0,721.0,0.0,-11806.0,4413.0,-4260.0,9560.0,-7510.0,10122.0,-8774.0,5708.0,63.0
97706582153.0,226.0,-4018.0,-750.0,2.0,1.0,7.0,-389.0,637.0,507.0,4401.0,313.0,9158.0,9682108.0,721.0,0.0,-11806.0,4414.0,-4259.0,9561.0,-7509.0,10122.0,-8773.0,5709.0,63.0
97706602172.0,224.0,-4034.0,-760.0,3.0,5.0,4.0,-389.0,635.0,505.0,4400.0,312.0,9158.0,9682108.0,721.0,0.0,-11805.0,4416.0,-4258.0,9562.0,-7507.0,10123.0,-8773.0,5710.0,63.0
97706622192.0,244.0,-4028.0,-744.0,-1.0,4.0,3.0,-387.0,638.0,509.0,4400.0,312.0,9158.0,9682108.0,721.0,0.0,-11804.0,4417.0,-4258.0,9562.0,-7506.0,10124.0,-8773.0,5710.0,63.0
97706642211.0,235.0,-4031.0,-750.0,-8.0,0.0,3.0,-391.0,636.0,509.0,4400.0,311.0,9158.0,9682108.0,721.0,0.0,-11804.0,4418.0,-4258.0,9562.0,-7505.0,10125.0,-8772.0,5710.0,63.0
97706662231.0,234.0,-4036.0,-758.0,-14.0,-6.0,-1.0,-392.0,637.0,510.0,4399.0,311.0,9160.0,9682074.0,721.0,0.0,-11806.0,4418.0,-4256.0,9560.0,-7507.0,10126.0,-8770.0,5710.0,63.0
97706682250.0,227.0,-4029.0,-781.0,-15.0,-6.0,-12.0,-393.0,635.0,510.0,4399.0,312.0,9163.0,9682074.0,721.0,0.0,-11810.0,4417.0,-4255.0,9556.0,-7510.0,10127.0,-8767.0,5708.0,63.0
97706702270.0,250.0,-4014.0,-774.0,-15.0,-4.0,-14.0,-397.0,636.0,506.0,4401.0,314.0,9165.0,9682074.0,721.0,0.0,-11812.0,4415.0,-4255.0,9554.0,-7514.0,10127.0,-8766.0,5705.0,63.0
97706722290.0,229.0,-4025.0,-771.0,-8.0,0.0,-11.0,-395.0,632.0,504.0,4401.0,314.0,9166.0,9682074.0,721.0,0.0,-11814.0,4415.0,-4255.0,9552.0,-7515.0,10127.0,-8765.0,5704.0,63.0
97706742309.0,245.0,-4010.0,-779.0,-2.0,5.0,-18.0,-395.0,631.0,505.0,4404.0,317.0,9167.0,9682193.0,721.0,0.0,-11815.0,4413.0,-4257.0,9550.0,-7518.0,10127.0,-8766.0,5701.0,63.0
97706762329.0,254.0,-4018.0,-768.0,1.0,8.0,-14.0,-394.0,631.0,505.0,4407.0,319.0,9167.0,9682193.0,721.0,0.0,-11816.0,4411.0,-4260.0,9549.0,-7519.0,10126.0,-8768.0,5699.0,63.0
97706782348.0,250.0,-4013.0,-760.0,3.0,9.0,-5.0,-394.0,630.0,507.0,4409.0,320.0,9167.0,9682193.0,721.0,0.0,-11815.0,4411.0,-4262.0,9549.0,-7518.0,10125.0,-8769.0,5697.0,63.0
97706802368.0,254.0,-4009.0,-757.0,2.0,6.0,2.0,-388.0,632.0,505.0,4410.0,320.0,9166.0,9682193.0,721.0,0.0,-11815.0,4412.0,-4263.0,9548.0,-7518.0,10126.0,-8770.0,5696.0,63.0
97706822387.0,250.0,-4017.0,-757.0,3.0,6.0,1.0,-382.0,630.0,505.0,4411.0,320.0,9166.0,9682007.0,721.0,0.0,-11814.0,4413.0,-4264.0,9549.0,-7517.0,10126.0,-8771.0,5696.0,63.0
97706842407.0,258.0,-4017.0,-760.0,0.0,5.0,0.0,-384.0,632.0,506.0,4412.0,321.0,9166.0,9682007.0,721.0,0.0,-11814.0,4413.0,-4265.0,9548.0,-7517.0,10126.0,-8771.0,5695.0,63.0
97706862426.0,249.0,-4021.0,-757.0,-1.0,5.0,0.0,-386.0,631.0,508.0,4413.0,321.0,9166.0,9682007.0,721.0,0.0,-11814.0,4414.0,-4266.0,9548.0,-7516.0,10127.0,-8771.0,5694.0,63.0
97706882446.0,253.0,-4031.0,-763.0,-4.0,2.0,0.0,-381.0,629.0,506.0,4413.0,321.0,9166.0,9682007.0,721.0,0.0,-11814.0,4414.0,-4266.0,9547.0,-7516.0,10127.0,-8771.0,5694.0,63.0
97706902465.0,250.0,-4019.0,-764.0,-6.0,3.0,-4.0,-387.0,633.0,512.0,4414.0,321.0,9167.0,9682229.0,721.0,0.0,-11815.0,4414.0,-4266.0,9546.0,-7517.0,10128.0,-8771.0,5693.0,63.0
97706922485.0,253.0,-4030.0,-765.0,-6.0,3.0,-6.0,-386.0,631.0,510.0,4415.0,322.0,9168.0,9682229.0,721.0,0.0,-11816.0,4414.0,-4267.0,9544.0,-7518.0,10128.0,-8770.0,5691.0,63.0
97706942504.0,246.0,-4027.0,-778.0,-4.0,6.0,-10.0,-387.0,632.0,508.0,4417.0,323.0,9169.0,9682229.0,721.0,0.0,-11817.0,4414.0,-4268.0,9543.0,-7519.0,10129.0,-8770.0,5689.0,63.0
97706962524.0,259.0,-4027.0,-770.0,-2.0,8.0,-11.0,-386.0,633.0,509.0,4420.0,325.0,9169.0,9682229.0,721.0,0.0,-11818.0,4413.0,-4270.0,9541.0,-7520.0,10128.0,-8771.0,5687.0,63.0
97706982543.0,261.0,-4039.0,-773.0,-4.0,13.0,-12.0,-385.0,632.0,510.0,4423.0,326.0,9170.0,9682048.0,721.0,0.0,-11818.0,4413.0,-4273.0,9540.0,-7520.0,10128.0,-8773.0,5684.0,63.0
97707002563.0,269.0,-4032.0,-773.0,-8.0,12.0,-11.0,-388.0,633.0,506.0,4426.0,328.0,9171.0,9682048.0,721.0,0.0,-11819.0,4413.0,-4275.0,9537.0,-7521.0,10129.0,-8774.0,5680.0,63.0
97707022583.0,280.0,-4024.0,-768.0,-14.0,11.0,-10.0,-390.0,638.0,509.0,4430.0,330.0,9172.0,9682048.0,721.0,0.0,-11821.0,4413.0,-4278.0,9534.0,-7522.0,10130.0,-8774.0,5676.0,63.0
97707042602.0,283.0,-4010.0,-750.0,-15.0,9.0,-10.0,-393.0,640.0,507.0,4433.0,331.0,9174.0,9682048.0,721.0,0.0,-11822.0,4413.0,-4280.0,9531.0,-7523.0,10131.0,-8774.0,5673.0,63.0
97707062622.0,274.0,-4000.0,-767.0,-15.0,4.0,-7.0,-395.0,639.0,502.0,4435.0,333.0,9176.0,9682097.0,721.0,0.0,-11824.0,4413.0,-4280.0,9528.0,-7525.0,10132.0,-8773.0,5670.0,63.0
97707082641.0,283.0,-4011.0,-767.0,-13.0,-1.0,-3.0,-390.0,641.0,502.0,4436.0,333.0,9177.0,9682097.0,721.0,0.0,-11826.0,4413.0,-4280.0,9526.0,-7527.0,10133.0,-8772.0,5668.0,63.0
97707102661.0,280.0,-3993.0,-756.0,-9.0,-6.0,0.0,-390.0,639.0,503.0,4435.0,334.0,9178.0,9682097.0,721.0,0.0,-11828.0,4413.0,-4280.0,9525.0,-7528.0,10133.0,-8771.0,5668.0,63.0
97707122680.0,271.0,-3994.0,-767.0,-6.0,-10.0,4.0,-393.0,643.0,502.0,4434.0,333.0,9179.0,9682097.0,721.0,0.0,-11829.0,4412.0,-4278.0,9525.0,-7529.0,10134.0,-8769.0,5668.0,63.0
97707142700.0,268.0,-4006.0,-779.0,-5.0,-15.0,10.0,-392.0,642.0,503.0,4431.0,332.0,9180.0,9682007.0,721.0,0.0,-11830.0,4412.0,-4275.0,9525.0,-7530.0,10134.0,-8767.0,5670.0,63.0
97707162719.0,260.0,-4038.0,-794.0,-5.0,-15.0,8.0,-396.0,640.0,505.0,4427.0,330.0,9181.0,9682007.0,721.0,0.0,-11831.0,4412.0,-4271.0,9525.0,-7531.0,10135.0,-8764.0,5672.0,63.0
97707182739.0,255.0,-4039.0,-784.0,-1.0,-13.0,5.0,-400.0,636.0,506.0,4425.0,329.0,9182.0,9682007.0,721.0,0.0,-11831.0,4412.0,-4268.0,9526.0,-7531.0,10135.0,-8762.0,5674.0,63.0
97707202758.0,246.0,-4019.0,-785.0,5.0,-8.0,-10.0,-397.0,634.0,511.0,4424.0,329.0,9182.0,9682007.0,721.0,0.0,-11832.0,4410.0,-4268.0,9526.0,-7533.0,10134.0,-8761.0,5675.0,63.0
97707222778.0,251.0,-4009.0,-782.0,9.0,-6.0,-4.0,-397.0,630.0,506.0,4424.0,330.0,9181.0,9682159.0,721.0,0.0,-11832.0,4409.0,-4268.0,9527.0,-7534.0,10132.0,-8762.0,5676.0,63.0
97707242797.0,249.0,-4005.0,-776.0,8.0,-2.0,6.0,-395.0,627.0,506.0,4422.0,329.0,9180.0,9682159.0,721.0,0.0,-11831.0,4409.0,-4267.0,9528.0,-7533.0,10132.0,-8762.0,5677.0,63.0
97707262817.0,260.0,-4014.0,-765.0,11.0,1.0,13.0,-393.0,629.0,509.0,4421.0,328.0,9179.0,9682159.0,721.0,0.0,-11829.0,4409.0,-4267.0,9530.0,-7531.0,10132.0,-8763.0,5679.0,63.0
97707282836.0,257.0,-4030.0,-757.0,10.0,4.0,12.0,-391.0,626.0,511.0,4420.0,327.0,9178.0,9682159.0,721.0,0.0,-11827.0,4411.0,-4266.0,9532.0,-7529.0,10132.0,-8763.0,5681.0,63.0
97707302856.0,260.0,-4027.0,-761.0,3.0,2.0,8.0,-391.0,628.0,511.0,4420.0,326.0,9177.0,9682082.0,721.0,0.0,-11826.0,4412.0,-4266.0,9533.0,-7527.0,10132.0,-8764.0,5682.0,63.0
97707322875.0,258.0,-4034.0,-752.0,-10.0,-5.0,8.0,-389.0,630.0,513.0,4418.0,325.0,9177.0,9682082.0,721.0,0.0,-11826.0,4413.0,-4265.0,9533.0,-7527.0,10133.0,-8763.0,5683.0,63.0
97707342895.0,247.0,-4043.0,-760.0,-17.0,-15.0,2.0,-391.0,631.0,511.0,4416.0,324.0,9179.0,9682082.0,721.0,0.0,-11828.0,4413.0,-4262.0,9532.0,-7528.0,10134.0,-8760.0,5684.0,63.0
97707362915.0,243.0,-4005.0,-760.0,-14.0,-18.0,-2.0,-389.0,633.0,513.0,4414.0,324.0,9181.0,9682082.0,721.0,0.0,-11831.0,4412.0,-4259.0,9531.0,-7531.0,10134.0,-8757.0,5684.0,63.0
97707382934.0,237.0,-4041.0,-796.0,-11.0,-18.0,-4.0,-387.0,632.0,511.0,4411.0,323.0,9183.0,9681760.0,721.0,0.0,-11833.0,4410.0,-4256.0,9530.0,-7534.0,10134.0,-8753.0,5685.0,63.0
97707402954.0,242.0,-4015.0,-807.0,-16.0,-12.0,-7.0,-386.0,634.0,512.0,4410.0,324.0,9185.0,9681760.0,721.0,0.0,-11836.0,4409.0,-4254.0,9528.0,-7537.0,10135.0,-8751.0,5684.0,63.0
97707422973.0,235.0,-4036.0,-812.0,-12.0,-3.0,-6.0,-382.0,637.0,511.0,4410.0,324.0,9187.0,9681760.0,721.0,0.0,-11838.0,4409.0,-4252.0,9526.0,-7539.0,10136.0,-8748.0,5683.0,63.0
97707442993.0,240.0,-4003.0,-798.0,-10.0,8.0,-16.0,-379.0,641.0,511.0,4412.0,326.0,9188.0,9681760.0,721.0,0.0,-11840.0,4408.0,-4254.0,9523.0,-7541.0,10136.0,-8748.0,5680.0,63.0
97707463012.0,260.0,-4010.0,-787.0,-5.0,10.0,-7.0,-377.0,640.0,510.0,4416.0,328.0,9189.0,9682193.0,721.0,0.0,-11841.0,4407.0,-4257.0,9521.0,-7542.0,10136.0,-8749.0,5677.0,63.0
97707483032.0,261.0,-4013.0,-780.0,-4.0,8.0,-3.0,-380.0,637.0,509.0,4417.0,328.0,9190.0,9682193.0,721.0,0.0,-11841.0,4408.0,-4258.0,9520.0,-7542.0,10137.0,-8750.0,5675.0,63.0
97707503051.0,277.0,-4003.0,-779.0,-7.0,7.0,0.0,-387.0,642.0,510.0,4419.0,329.0,9191.0,9682193.0,721.0,0.0,-11842.0,4409.0,-4259.0,9518.0,-7542.0,10138.0,-8750.0,5673.0,63.0
97707523071.0,266.0,-4009.0,-765.0,-4.0,2.0,0.0,-394.0,640.0,509.0,4420.0,330.0,9191.0,9682193.0,721.0,0.0,-11842.0,4409.0,-4260.0,9517.0,-7542.0,10138.0,-8750.0,5672.0,63.0
97707543090.0,263.0,-4010.0,-777.0,-4.0,-4.0,0.0,-400.0,642.0,512.0,4420.0,330.0,9191.0,9682097.0,721.0,0.0,-11843.0,4408.0,-4260.0,9517.0,-7543.0,10138.0,-8750.0,5672.0,63.0
97707563110.0,265.0,-4014.0,-781.0,-4.0,-9.0,0.0,-399.0,640.0,511.0,4420.0,330.0,9192.0,9682097.0,721.0,0.0,-11844.0,4407.0,-4259.0,9516.0,-7545.0,10138.0,-8748.0,5672.0,63.0
97707583129.0,254.0,-4011.0,-788.0,-5.0,-10.0,2.0,-393.0,642.0,507.0,4418.0,330.0,9193.0,9682097.0,721.0,0.0,-11845.0,4407.0,-4257.0,9516.0,-7546.0,10138.0,-8747.0,5672.0,63.0
97707603149.0,253.0,-4012.0,-800.0,-4.0,-8.0,2.0,-390.0,639.0,504.0,4417.0,329.0,9194.0,9682097.0,721.0,0.0,-11847.0,4407.0,-4255.0,9515.0,-7547.0,10139.0,-8745.0,5673.0,63.0
97707623168.0,246.0,-4015.0,-797.0,-3.0,-4.0,0.0,-392.0,639.0,510.0,4416.0,329.0,9195.0,9682027.0,721.0,0.0,-11848.0,4407.0,-4254.0,9515.0,-7548.0,10139.0,-8743.0,5673.0,63.0
97707643188.0,247.0,-4016.0,-797.0,0.0,0.0,0.0,-392.0,633.0,512.0,4415.0,329.0,9196.0,9682027.0,721.0,0.0,-11848.0,4407.0,-4253.0,9514.0,-7548.0,10140.0,-8742.0,5673.0,63.0
97707663208.0,254.0,-4020.0,-804.0,0.0,4.0,-1.0,-390.0,634.0,512.0,4416.0,329.0,9197.0,9682027.0,721.0,0.0,-11849.0,4408.0,-4253.0,9513.0,-7548.0,10141.0,-8742.0,5672.0,63.0
97707683227.0,253.0,-4026.0,-785.0,1.0,7.0,-1.0,-388.0,633.0,513.0,4416.0,329.0,9197.0,9682027.0,721.0,0.0,-11849.0,4408.0,-4254.0,9513.0,-7548.0,10141.0,-8742.0,5671.0,63.0
97707703247.0,266.0,-4019.0,-790.0,0.0,6.0,-4.0,-388.0,632.0,513.0,4418.0,330.0,9197.0,9682274.0,721.0,0.0,-11849.0,4408.0,-4255.0,9512.0,-7548.0,10141.0,-8743.0,5670.0,63.0
97707723266.0,258.0,-4017.0,-786.0,-1.0,4.0,-4.0,-387.0,632.0,514.0,4419.0,330.0,9198.0,9682274.0,721.0,0.0,-11849.0,4408.0,-4256.0,9511.0,-7548.0,10142.0,-8743.0,5668.0,63.0
97707743286.0,264.0,-4003.0,-788.0,-1.0,3.0,-2.0,-389.0,630.0,512.0,4421.0,331.0,9198.0,9682274.0,721.0,0.0,-11850.0,4408.0,-4257.0,9510.0,-7549.0,10142.0,-8743.0,5667.0,63.0
97707763305.0,261.0,-4014.0,-785.0,2.0,1.0,-2.0,-391.0,631.0,509.0,4421.0,331.0,9198.0,9682274.0,721.0,0.0,-11850.0,4408.0,-4258.0,9510.0,-7549.0,10141.0,-8744.0,5667.0,63.0
97707783325.0,269.0,-4006.0,-782.0,3.0,0.0,-3.0,-393.0,631.0,505.0,4422.0,332.0,9197.0,9682300.0,721.0,0.0,-11850.0,4407.0,-4259.0,9510.0,-7549.0,10141.0,-8745.0,5666.0,63.0
97707803344.0,265.0,-4013.0,-779.0,3.0,0.0,-1.0,-394.0,631.0,505.0,4423.0,333.0,9197.0,9682300.0,721.0,0.0,-11850.0,4406.0,-4259.0,9510.0,-7550.0,10140.0,-8745.0,5666.0,63.0
97707823364.0,258.0,-4030.0,-789.0,4.0,1.0,0.0,-395.0,632.0,508.0,4423.0,333.0,9197.0,9682300.0,721.0,0.0,-11849.0,4406.0,-4259.0,9510.0,-7549.0,10140.0,-8746.0,5666.0,63.0
97707843383.0,274.0,-3993.0,-764.0,0.0,-1.0,-1.0,-392.0,634.0,507.0,4423.0,333.0,9196.0,9682300.0,721.0,0.0,-11849.0,4406.0,-4260.0,9511.0,-7550.0,10139.0,-8746.0,5666.0,63.0
97707863403.0,255.0,-4037.0,-791.0,-2.0,-5.0,7.0,-397.0,638.0,505.0,4422.0,333.0,9197.0,9682309.0,721.0,0.0,-11849.0,4406.0,-4259.0,9511.0,-7550.0,10140.0,-8745.0,5667.0,63.0
97707883422.0,266.0,-4029.0,-798.0,-7.0,-7.0,3.0,-396.0,639.0,505.0,4421.0,332.0,9198.0,9682309.0,721.0,0.0,-11850.0,4406.0,-4257.0,9510.0,-7551.0,10140.0,-8743.0,5667.0,63.0
97707903442.0,252.0,-4039.0,-789.0,-3.0,-6.0,-7.0,-397.0,638.0,504.0,4420.0,332.0,9198.0,9682309.0,721.0,0.0,-11851.0,4406.0,-4256.0,9509.0,-7552.0,10140.0,-8742.0,5667.0,63.0
97707923461.0,267.0,-4011.0,-788.0,0.0,-3.0,-13.0,-397.0,633.0,506.0,4421.0,333.0,9199.0,9682309.0,721.0,0.0,-11852.0,4403.0,-4257.0,9509.0,-7554.0,10139.0,-8743.0,5666.0,63.0
97707943481.0,259.0,-4004.0,-783.0,1.0,-5.0,-4.0,-395.0,635.0,507.0,4421.0,334.0,9199.0,9681986.0,721.0,0.0,-11853.0,4402.0,-4257.0,9509.0,-7555.0,10138.0,-8743.0,5666.0,63.0
97707963500.0,260.0,-4007.0,-778.0,5.0,-5.0,7.0,-392.0,635.0,513.0,4420.0,333.0,9198.0,9681986.0,721.0,0.0,-11852.0,4402.0,-4256.0,9510.0,-7555.0,10138.0,-8742.0,5668.0,63.0
97707983520.0,260.0,-4012.0,-777.0,8.0,-2.0,8.0,-389.0,637.0,513.0,4418.0,332.0,9197.0,9681986.0,721.0,0.0,-11851.0,4402.0,-4255.0,9511.0,-7554.0,10138.0,-8742.0,5670.0,63.0
97708003540.0,258.0,-4015.0,-778.0,5.0,-3.0,7.0,-392.0,638.0,515.0,4417.0,331.0,9197.0,9681986.0,721.0,0.0,-11850.0,4403.0,-4254.0,9513.0,-7552.0,10138.0,-8742.0,5671.0,63.0
97708023559.0,256.0,-4017.0,-779.0,-1.0,-7.0,8.0,-387.0,637.0,512.0,4415.0,330.0,9196.0,9681913.0,721.0,0.0,-11850.0,4403.0,-4252.0,9514.0,-7552.0,10138.0,-8742.0,5673.0,63.0
97708043579.0,248.0,-4023.0,-778.0,-10.0,-10.0,8.0,-387.0,641.0,511.0,4412.0,329.0,9197.0,9681913.0,721.0,0.0,-11851.0,4404.0,-4249.0,9514.0,-7552.0,10139.0,-8739.0,5675.0,63.0
97708063598.0,245.0,-4018.0,-792.0,-12.0,-10.0,1.0,-388.0,641.0,514.0,4410.0,328.0,9199.0,9681913.0,721.0,0.0,-11852.0,4404.0,-4247.0,9513.0,-7554.0,10140.0,-8736.0,5675.0,63.0
97708083618.0,246.0,-4022.0,-809.0,-13.0,0.0,-2.0,-387.0,641.0,511.0,4410.0,328.0,9201.0,9681913.0,721.0,0.0,-11854.0,4404.0,-4246.0,9511.0,-7555.0,10141.0,-8734.0,5674.0,63.0
97708103637.0,226.0,-4016.0,-811.0,-18.0,9.0,-9.0,-389.0,638.0,514.0,4411.0,329.0,9203.0,9682240.0,721.0,0.0,-11856.0,4405.0,-4246.0,9508.0,-7556.0,10143.0,-8733.0,5672.0,63.0
97708123657.0,251.0,-4011.0,-821.0,-20.0,11.0,9.0,-389.0,638.0,515.0,4413.0,329.0,9205.0,9682240.0,721.0,0.0,-11858.0,4407.0,-4246.0,9504.0,-7556.0,10146.0,-8731.0,5669.0,63.0
97708143676.0,233.0,-4050.0,-824.0,-18.0,17.0,2.0,-385.0,640.0,516.0,4414.0,328.0,9208.0,9682240.0,721.0,0.0,-11859.0,4411.0,-4246.0,9502.0,-7555.0,10149.0,-8730.0,5666.0,63.0
97708163696.0,248.0,-4016.0,-808.0,-13.0,24.0,-12.0,-384.0,642.0,515.0,4419.0,330.0,9209.0,9682240.0,721.0,0.0,-11860.0,4413.0,-4250.0,9498.0,-7555.0,10151.0,-8731.0,5662.0,63.0
97708183715.0,258.0,-3999.0,-802.0,-8.0,22.0,-10.0,-386.0,643.0,519.0,4423.0,332.0,9210.0,9681847.0,721.0,0.0,-11861.0,4414.0,-4253.0,9495.0,-7555.0,10153.0,-8732.0,5657.0,63.0
97708203735.0,272.0,-3995.0,-785.0,-1.0,16.0,-9.0,-387.0,641.0,517.0,4427.0,333.0,9210.0,9681847.0,721.0,0.0,-11861.0,4414.0,-4257.0,9493.0,-7555.0,10153.0,-8734.0,5654.0,63.0
97708223754.0,271.0,-3996.0,-778.0,5.0,8.0,-7.0,-385.0,639.0,517.0,4430.0,335.0,9210.0,9681847.0,721.0,0.0,-11860.0,4414.0,-4259.0,9493.0,-7554.0,10152.0,-8736.0,5652.0,63.0
97708243774.0,285.0,-4008.0,-790.0,5.0,-1.0,-4.0,-389.0,634.0,510.0,4431.0,336.0,9209.0,9681847.0,721.0,0.0,-11860.0,4412.0,-4261.0,9494.0,-7555.0,10151.0,-8738.0,5652.0,63.0
97708263793.0,277.0,-4020.0,-801.0,0.0,-9.0,-5.0,-386.0,633.0,510.0,4431.0,337.0,9209.0,9682018.0,721.0,0.0,-11860.0,4411.0,-4261.0,9493.0,-7557.0,10150.0,-8738.0,5651.0,63.0
97708283813.0,279.0,-4015.0,-805.0,-6.0,-8.0,-9.0,-385.0,633.0,511.0,4431.0,337.0,9210.0,9682018.0,721.0,0.0,-11862.0,4409.0,-4261.0,9493.0,-7559.0,10149.0,-8737.0,5651.0,63.0
97708303833.0,262.0,-4005.0,-809.0,-9.0,-5.0,-6.0,-389.0,635.0,511.0,4431.0,338.0,9211.0,9682018.0,721.0,0.0,-11864.0,4408.0,-4260.0,9491.0,-7561.0,10149.0,-8735.0,5650.0,63.0
97708323852.0,266.0,-4000.0,-809.0,-8.0,0.0,0.0,-393.0,632.0,514.0,4431.0,338.0,9213.0,9682018.0,721.0,0.0,-11865.0,4408.0,-4259.0,9489.0,-7562.0,10150.0,-8734.0,5649.0,63.0
97708343872.0,272.0,-3998.0,-795.0,-4.0,1.0,5.0,-395.0,628.0,512.0,4431.0,338.0,9213.0,9682178.0,721.0,0.0,-11866.0,4409.0,-4259.0,9488.0,-7562.0,10151.0,-8733.0,5648.0,63.0
97708363891.0,269.0,-4007.0,-795.0,1.0,-2.0,12.0,-395.0,625.0,513.0,4430.0,337.0,9214.0,9682178.0,721.0,0.0,-11866.0,4410.0,-4258.0,9489.0,-7561.0,10152.0,-8732.0,5649.0,63.0
97708383911.0,274.0,-4005.0,-788.0,6.0,-6.0,14.0,-392.0,626.0,514.0,4428.0,335.0,9213.0,9682178.0,721.0,0.0,-11865.0,4411.0,-4256.0,9490.0,-7560.0,10152.0,-8732.0,5652.0,63.0
97708403930.0,268.0,-4026.0,-793.0,12.0,-12.0,14.0,-392.0,625.0,515.0,4424.0,333.0,9212.0,9682178.0,721.0,0.0,-11863.0,4411.0,-4253.0,9493.0,-7559.0,10152.0,-8731.0,5655.0,63.0
97708423950.0,250.0,-4027.0,-797.0,12.0,-14.0,8.0,-390.0,626.0,514.0,4421.0,332.0,9211.0,9681993.0,721.0,0.0,-11862.0,4410.0,-4251.0,9496.0,-7558.0,10151.0,-8730.0,5659.0,63.0
97708443969.0,243.0,-4015.0,-801.0,9.0,-14.0,5.0,-388.0,627.0,516.0,4417.0,330.0,9210.0,9681993.0,721.0,0.0,-11862.0,4410.0,-4248.0,9498.0,-7558.0,10150.0,-8729.0,5662.0,63.0
97708463989.0,247.0,-4020.0,-809.0,2.0,-8.0,4.0,-392.0,629.0,515.0,4415.0,330.0,9210.0,9681993.0,721.0,0.0,-11862.0,4409.0,-4246.0,9499.0,-7559.0,10149.0,-8728.0,5664.0,63.0
97708484008.0,244.0,-4020.0,-800.0,0.0,0.0,0.0,-390.0,632.0,513.0,4414.0,329.0,9210.0,9681993.0,721.0,0.0,-11862.0,4410.0,-4245.0,9499.0,-7559.0,10150.0,-8727.0,5665.0,63.0
97708504028.0,248.0,-4008.0,-798.0,2.0,7.0,0.0,-391.0,633.0,513.0,4414.0,329.0,9210.0,9682001.0,721.0,0.0,-11862.0,4410.0,-4245.0,9499.0,-7558.0,10150.0,-8727.0,5664.0,63.0
97708524047.0,254.0,-4029.0,-797.0,0.0,9.0,1.0,-388.0,632.0,514.0,4415.0,328.0,9210.0,9682001.0,721.0,0.0,-11861.0,4412.0,-4246.0,9498.0,-7557.0,10151.0,-8728.0,5664.0,63.0
97708544067.0,254.0,-4023.0,-786.0,0.0,11.0,1.0,-390.0,631.0,515.0,4417.0,329.0,9210.0,9682001.0,721.0,0.0,-11861.0,4413.0,-4248.0,9498.0,-7555.0,10152.0,-8729.0,5663.0,63.0
97708564086.0,268.0,-3983.0,-776.0,-3.0,3.0,4.0,-393.0,630.0,515.0,4418.0,329.0,9210.0,9682001.0,721.0,0.0,-11860.0,4414.0,-4249.0,9498.0,-7554.0,10153.0,-8730.0,5661.0,63.0
97708584106.0,261.0,-4067.0,-804.0,-8.0,-3.0,5.0,-394.0,633.0,519.0,4417.0,328.0,9210.0,9682112.0,721.0,0.0,-11860.0,4415.0,-4248.0,9497.0,-7554.0,10154.0,-8729.0,5662.0,63.0
97708604125.0,260.0,-4039.0,-799.0,-18.0,-4.0,-6.0,-391.0,634.0,517.0,4418.0,329.0,9212.0,9682112.0,721.0,0.0,-11863.0,4415.0,-4247.0,9495.0,-7556.0,10154.0,-8727.0,5660.0,63.0
97708624145.0,253.0,-4022.0,-780.0,-12.0,-9.0,-15.0,-393.0,636.0,517.0,4418.0,330.0,9214.0,9682112.0,721.0,0.0,-11865.0,4413.0,-4247.0,9493.0,-7559.0,10154.0,-8726.0,5659.0,63.0
97708644165.0,259.0,-4003.0,-792.0,-8.0,-12.0,-14.0,-392.0,637.0,519.0,4418.0,331.0,9215.0,9682112.0,721.0,0.0,-11867.0,4410.0,-4246.0,9492.0,-7563.0,10153.0,-8724.0,5658.0,63.0
97708664184.0,247.0,-4007.0,-799.0,-4.0,-13.0,-6.0,-390.0,635.0,516.0,4417.0,332.0,9216.0,9682088.0,721.0,0.0,-11869.0,4408.0,-4245.0,9491.0,-7565.0,10152.0,-8723.0,5658.0,63.0
97708684204.0,252.0,-3998.0,-800.0,-2.0,-9.0,-2.0,-388.0,629.0,516.0,4416.0,332.0,9217.0,9682088.0,721.0,0.0,-11870.0,4407.0,-4243.0,9491.0,-7567.0,10152.0,-8722.0,5659.0,63.0
97708704223.0,246.0,-4011.0,-796.0,-3.0,-4.0,2.0,-391.0,629.0,519.0,4414.0,331.0,9217.0,9682088.0,721.0,0.0,-11870.0,4407.0,-4242.0,9491.0,-7567.0,10152.0,-8720.0,5660.0,63.0
97708724243.0,242.0,-4007.0,-797.0,-6.0,0.0,0.0,-391.0,629.0,520.0,4414.0,330.0,9218.0,9682088.0,721.0,0.0,-11871.0,4408.0,-4241.0,9491.0,-7567.0,10153.0,-8719.0,5660.0,63.0
97708744262.0,253.0,-4019.0,-804.0,-13.0,2.0,0.0,-389.0,630.0,517.0,4414.0,330.0,9219.0,9682213.0,721.0,0.0,-11872.0,4409.0,-4241.0,9489.0,-7567.0,10155.0,-8718.0,5659.0,63.0
97708764282.0,257.0,-4025.0,-793.0,-22.0,1.0,0.0,-392.0,634.0,518.0,4415.0,331.0,9221.0,9682213.0,721.0,0.0,-11874.0,4410.0,-4240.0,9487.0,-7568.0,10156.0,-8716.0,5657.0,63.0
97708784301.0,257.0,-4036.0,-802.0,-26.0,-1.0,-7.0,-390.0,632.0,511.0,4415.0,331.0,9224.0,9682213.0,721.0,0.0,-11877.0,4410.0,-4239.0,9483.0,-7570.0,10158.0,-8714.0,5655.0,63.0
97708804321.0,252.0,-4020.0,-816.0,-26.0,-1.0,-13.0,-385.0,629.0,514.0,4416.0,332.0,9227.0,9682213.0,721.0,0.0,-11880.0,4410.0,-4239.0,9479.0,-7573.0,10160.0,-8711.0,5651.0,63.0
97708824340.0,248.0,-4038.0,-824.0,-29.0,-4.0,-19.0,-389.0,628.0,512.0,4418.0,334.0,9231.0,9682068.0,721.0,0.0,-11884.0,4409.0,-4238.0,9475.0,-7577.0,10161.0,-8709.0,5648.0,63.0
97708844360.0,256.0,-4019.0,-816.0,-24.0,-5.0,-15.0,-386.0,628.0,511.0,4419.0,336.0,9234.0,9682068.0,721.0,0.0,-11888.0,4408.0,-4238.0,9471.0,-7581.0,10162.0,-8706.0,5645.0,63.0
97708864379.0,266.0,-4026.0,-821.0,-19.0,-1.0,-26.0,-387.0,628.0,517.0,4422.0,338.0,9236.0,9682068.0,721.0,0.0,-11891.0,4405.0,-4239.0,9467.0,-7585.0,10162.0,-8705.0,5641.0,63.0
97708884399.0,269.0,-4001.0,-806.0,-15.0,-3.0,-25.0,-390.0,630.0,514.0,4425.0,341.0,9238.0,9682068.0,721.0,0.0,-11894.0,4402.0,-4241.0,9464.0,-7589.0,10161.0,-8705.0,5638.0,63.0
97708904418.0,269.0,-4002.0,-807.0,-16.0,-8.0,-11.0,-388.0,628.0,520.0,4426.0,343.0,9240.0,9682123.0,721.0,0.0,-11897.0,4400.0,-4241.0,9462.0,-7593.0,10161.0,-8704.0,5636.0,63.0
97708924438.0,275.0,-4013.0,-806.0,-19.0,-11.0,-8.0,-386.0,628.0,522.0,4426.0,343.0,9242.0,9682123.0,721.0,0.0,-11899.0,4399.0,-4240.0,9460.0,-7596.0,10161.0,-8701.0,5635.0,63.0
97708944458.0,266.0,-3995.0,-813.0,-22.0,-9.0,-12.0,-384.0,627.0,520.0,4425.0,344.0,9245.0,9682123.0,721.0,0.0,-11903.0,4398.0,-4238.0,9457.0,-7599.0,10162.0,-8699.0,5633.0,63.0
97708964477.0,270.0,-4005.0,-815.0,-23.0,-10.0,-13.0,-384.0,626.0,521.0,4426.0,345.0,9247.0,9682123.0,721.0,0.0,-11906.0,4396.0,-4237.0,9454.0,-7603.0,10162.0,-8696.0,5631.0,63.0
97708984497.0,265.0,-4001.0,-818.0,-24.0,-13.0,-15.0,-387.0,629.0,520.0,4426.0,347.0,9250.0,9682123.0,721.0,0.0,-11910.0,4394.0,-4236.0,9450.0,-7607.0,10163.0,-8693.0,5629.0,63.0
97709004516.0,266.0,-4018.0,-829.0,-24.0,-14.0,-14.0,-386.0,628.0,522.0,4426.0,348.0,9253.0,9682123.0,721.0,0.0,-11914.0,4392.0,-4234.0,9447.0,-7612.0,10163.0,-8690.0,5627.0,63.0
97709024536.0,267.0,-4018.0,-841.0,-23.0,-14.0,-17.0,-387.0,625.0,521.0,4426.0,349.0,9256.0,9682123.0,721.0,0.0,-11918.0,4389.0,-4233.0,9444.0,-7617.0,10163.0,-8687.0,5625.0,63.0
97709044555.0,262.0,-4018.0,-851.0,-24.0,-8.0,-22.0,-386.0,626.0,522.0,4427.0,351.0,9260.0,9682123.0,721.0,0.0,-11922.0,4387.0,-4232.0,9440.0,-7621.0,10164.0,-8684.0,5622.0,63.0
97709064575.0,270.0,-4018.0,-849.0,-24.0,-2.0,-23.0,-389.0,625.0,522.0,4429.0,354.0,9263.0,9681997.0,721.0,0.0,-11926.0,4385.0,-4233.0,9436.0,-7626.0,10164.0,-8682.0,5618.0,63.0
97709084594.0,273.0,-4014.0,-844.0,-26.0,4.0,-21.0,-384.0,623.0,518.0,4432.0,356.0,9266.0,9681997.0,721.0,0.0,-11930.0,4383.0,-4234.0,9431.0,-7630.0,10165.0,-8681.0,5614.0,63.0
97709104614.0,284.0,-4015.0,-847.0,-24.0,5.0,-19.0,-384.0,625.0,520.0,4435.0,359.0,9269.0,9681997.0,721.0,0.0,-11933.0,4382.0,-4235.0,9427.0,-7633.0,10166.0,-8680.0,5609.0,63.0
97709124633.0,286.0,-4007.0,-821.0,-24.0,0.0,-17.0,-383.0,624.0,521.0,4438.0,361.0,9271.0,9681997.0,721.0,0.0,-11936.0,4381.0,-4237.0,9423.0,-7636.0,10166.0,-8679.0,5605.0,63.0
97709144653.0,304.0,-4019.0,-810.0,-21.0,-9.0,-14.0,-382.0,624.0,523.0,4440.0,363.0,9273.0,9681997.0,721.0,0.0,-11939.0,4379.0,-4237.0,9420.0,-7640.0,10166.0,-8677.0,5603.0,63.0
97709164672.0,294.0,-4030.0,-804.0,-16.0,-24.0,-16.0,-387.0,623.0,526.0,4439.0,364.0,9275.0,9681997.0,721.0,0.0,-11942.0,4376.0,-4235.0,9418.0,-7644.0,10165.0,-8675.0,5602.0,63.0
97709184692.0,294.0,-4025.0,-815.0,-14.0,-39.0,-21.0,-387.0,621.0,530.0,4436.0,365.0,9277.0,9681997.0,721.0,0.0,-11946.0,4370.0,-4232.0,9417.0,-7650.0,10163.0,-8672.0,5603.0,63.0
97709204711.0,273.0,-4019.0,-830.0,-13.0,-45.0,-30.0,-389.0,622.0,528.0,4433.0,367.0,9279.0,9681997.0,721.0,0.0,-11951.0,4363.0,-4228.0,9417.0,-7658.0,10159.0,-8668.0,5605.0,63.0
97709224731.0,272.0,-4011.0,-842.0,-16.0,-43.0,-30.0,-393.0,623.0,530.0,4430.0,369.0,9281.0,9681997.0,721.0,0.0,-11956.0,4356.0,-4224.0,9415.0,-7667.0,10156.0,-8664.0,5605.0,63.0
97709244750.0,265.0,-4011.0,-878.0,-21.0,-33.0,-29.0,-392.0,622.0,528.0,4428.0,371.0,9284.0,9681997.0,721.0,0.0,-11961.0,4350.0,-4221.0,9412.0,-7674.0,10154.0,-8660.0,5605.0,63.0
97709264770.0,257.0,-4008.0,-883.0,-28.0,-14.0,-38.0,-395.0,623.0,525.0,4429.0,374.0,9288.0,9681997.0,721.0,0.0,-11967.0,4345.0,-4221.0,9408.0,-7682.0,10152.0,-8657.0,5601.0,63.0
97709284790.0,294.0,-3957.0,-882.0,-34.0,-1.0,-26.0,-398.0,625.0,524.0,4433.0,378.0,9292.0,9681997.0,721.0,0.0,-11972.0,4342.0,-4222.0,9402.0,-7688.0,10153.0,-8655.0,5596.0,63.0
97709304809.0,288.0,-4016.0,-892.0,-40.0,9.0,-24.0,-398.0,623.0,524.0,4437.0,380.0,9296.0,9682058.0,721.0,0.0,-11977.0,4341.0,-4223.0,9396.0,-7692.0,10155.0,-8653.0,5590.0,63.0
97709324829.0,310.0,-3983.0,-899.0,-42.0,19.0,-33.0,-399.0,626.0,525.0,4444.0,385.0,9302.0,9682058.0,721.0,0.0,-11982.0,4341.0,-4227.0,9387.0,-7697.0,10157.0,-8651.0,5581.0,63.0
97709344848.0,312.0,-3969.0,-881.0,-34.0,19.0,-45.0,-399.0,623.0,523.0,4452.0,390.0,9306.0,9682058.0,721.0,0.0,-11987.0,4339.0,-4232.0,9380.0,-7702.0,10158.0,-8651.0,5572.0,63.0
97709364868.0,325.0,-3948.0,-889.0,-25.0,16.0,-41.0,-402.0,622.0,524.0,4460.0,395.0,9309.0,9682058.0,721.0,0.0,-11992.0,4336.0,-4237.0,9373.0,-7707.0,10158.0,-8652.0,5563.0,63.0
97709384887.0,332.0,-3942.0,-893.0,-14.0,15.0,-26.0,-397.0,623.0,524.0,4466.0,399.0,9311.0,9682174.0,721.0,0.0,-11994.0,4334.0,-4242.0,9368.0,-7711.0,10159.0,-8653.0,5557.0,63.0
97709404907.0,347.0,-3942.0,-899.0,-4.0,14.0,-11.0,-397.0,622.0,527.0,4470.0,402.0,9312.0,9682174.0,721.0,0.0,-11996.0,4334.0,-4245.0,9365.0,-7712.0,10159.0,-8654.0,5552.0,63.0
97709424926.0,339.0,-3959.0,-886.0,4.0,14.0,0.0,-396.0,617.0,527.0,4473.0,402.0,9312.0,9682174.0,721.0,0.0,-11995.0,4335.0,-4247.0,9365.0,-7711.0,10159.0,-8656.0,5551.0,63.0
97709444946.0,333.0,-3967.0,-881.0,10.0,10.0,8.0,-400.0,617.0,532.0,4474.0,402.0,9311.0,9682174.0,721.0,0.0,-11993.0,4336.0,-4249.0,9365.0,-7709.0,10160.0,-8657.0,5550.0,63.0
97709464965.0,337.0,-3983.0,-882.0,10.0,4.0,12.0,-398.0,617.0,532.0,4473.0,401.0,9310.0,9682138.0,721.0,0.0,-11992.0,4338.0,-4249.0,9367.0,-7707.0,10160.0,-8658.0,5551.0,63.0
97709484985.0,336.0,-4001.0,-880.0,4.0,-5.0,10.0,-402.0,618.0,528.0,4472.0,400.0,9309.0,9682138.0,721.0,0.0,-11991.0,4338.0,-4248.0,9368.0,-7706.0,10160.0,-8658.0,5553.0,63.0
97709505004.0,317.0,-3982.0,-874.0,8.0,-11.0,7.0,-402.0,619.0,530.0,4470.0,399.0,9309.0,9682138.0,721.0,0.0,-11990.0,4338.0,-4246.0,9369.0,-7705.0,10160.0,-8658.0,5555.0,63.0
97709525024.0,321.0,-3993.0,-896.0,9.0,-22.0,13.0,-404.0,621.0,529.0,4466.0,397.0,9308.0,9682138.0,721.0,0.0,-11990.0,4337.0,-4243.0,9371.0,-7705.0,10159.0,-8656.0,5559.0,63.0
97709545043.0,298.0,-4038.0,-904.0,4.0,-24.0,4.0,-404.0,619.0,528.0,4461.0,396.0,9308.0,9682078.0,721.0,0.0,-11990.0,4336.0,-4239.0,9374.0,-7706.0,10158.0,-8654.0,5563.0,63.0
97709565063.0,305.0,-4011.0,-893.0,1.0,-18.0,-11.0,-404.0,620.0,528.0,4459.0,396.0,9308.0,9682078.0,721.0,0.0,-11992.0,4333.0,-4237.0,9374.0,-7709.0,10156.0,-8653.0,5564.0,63.0
97709585083.0,310.0,-4014.0,-891.0,4.0,-8.0,-34.0,-405.0,623.0,528.0,4461.0,399.0,9308.0,9682078.0,721.0,0.0,-11993.0,4328.0,-4239.0,9374.0,-7713.0,10153.0,-8654.0,5563.0,63.0
97709605102.0,320.0,-3981.0,-879.0,2.0,-1.0,-32.0,-402.0,624.0,528.0,4465.0,403.0,9308.0,9682078.0,721.0,0.0,-11995.0,4323.0,-4242.0,9373.0,-7717.0,10149.0,-8656.0,5560.0,63.0
97709625122.0,323.0,-3990.0,-889.0,-3.0,-1.0,-13.0,-401.0,622.0,530.0,4467.0,405.0,9308.0,9682204.0,721.0,0.0,-11996.0,4320.0,-4244.0,9371.0,-7720.0,10148.0,-8657.0,5558.0,63.0
97709645141.0,330.0,-3999.0,-894.0,-14.0,-1.0,-10.0,-398.0,621.0,528.0,4468.0,406.0,9310.0,9682204.0,721.0,0.0,-11998.0,4319.0,-4244.0,9369.0,-7722.0,10148.0,-8656.0,5556.0,63.0
97709665161.0,335.0,-3992.0,-897.0,-23.0,7.0,-16.0,-395.0,618.0,530.0,4471.0,408.0,9313.0,9682204.0,721.0,0.0,-12001.0,4319.0,-4245.0,9365.0,-7725.0,10149.0,-8654.0,5552.0,63.0
97709685180.0,336.0,-3973.0,-905.0,-25.0,14.0,-17.0,-397.0,616.0,526.0,4475.0,411.0,9316.0,9682204.0,721.0,0.0,-12005.0,4319.0,-4247.0,9360.0,-7727.0,10151.0,-8653.0,5546.0,63.0
97709705200.0,336.0,-3957.0,-898.0,-23.0,18.0,-13.0,-398.0,616.0,527.0,4480.0,413.0,9319.0,9682103.0,721.0,0.0,-12007.0,4320.0,-4250.0,9355.0,-7729.0,10153.0,-8653.0,5541.0,63.0
97709725219.0,342.0,-3964.0,-899.0,-18.0,19.0,-1.0,-399.0,613.0,527.0,4483.0,414.0,9321.0,9682103.0,721.0,0.0,-12009.0,4322.0,-4252.0,9351.0,-7729.0,10156.0,-8652.0,5536.0,63.0
97709745239.0,341.0,-3957.0,-904.0,-11.0,15.0,8.0,-399.0,616.0,523.0,4485.0,414.0,9323.0,9682103.0,721.0,0.0,-12010.0,4325.0,-4253.0,9348.0,-7728.0,10159.0,-8652.0,5533.0,63.0
97709765258.0,343.0,-3962.0,-898.0,0.0,14.0,12.0,-403.0,613.0,524.0,4486.0,413.0,9323.0,9682103.0,721.0,0.0,-12009.0,4328.0,-4254.0,9347.0,-7726.0,10161.0,-8652.0,5532.0,63.0
97709785278.0,345.0,-3982.0,-904.0,13.0,13.0,9.0,-408.0,612.0,526.0,4487.0,413.0,9322.0,9681973.0,721.0,0.0,-12007.0,4330.0,-4255.0,9348.0,-7723.0,10162.0,-8653.0,5532.0,63.0
97709805297.0,347.0,-3972.0,-907.0,20.0,13.0,11.0,-407.0,613.0,530.0,4488.0,412.0,9320.0,9681973.0,721.0,0.0,-12004.0,4332.0,-4257.0,9350.0,-7720.0,10162.0,-8656.0,5533.0,63.0
97709825317.0,346.0,-3983.0,-893.0,23.0,12.0,15.0,-404.0,614.0,528.0,4488.0,411.0,9317.0,9681973.0,721.0,0.0,-12001.0,4334.0,-4258.0,9353.0,-7716.0,10161.0,-8659.0,5535.0,63.0
97709845336.0,338.0,-3989.0,-886.0,23.0,8.0,24.0,-406.0,616.0,528.0,4487.0,409.0,9315.0,9681973.0,721.0,0.0,-11997.0,4336.0,-4258.0,9356.0,-7712.0,10162.0,-8661.0,5538.0,63.0
97709865356.0,340.0,-3984.0,-874.0,23.0,4.0,22.0,-402.0,613.0,531.0,4485.0,407.0,9312.0,9682165.0,721.0,0.0,-11994.0,4338.0,-4258.0,9360.0,-7708.0,10161.0,-8662.0,5541.0,63.0
97709885375.0,335.0,-3985.0,-864.0,23.0,-2.0,23.0,-408.0,615.0,532.0,4482.0,404.0,9309.0,9682165.0,721.0,0.0,-11990.0,4340.0,-4257.0,9364.0,-7704.0,10161.0,-8664.0,5545.0,63.0
97709905395.0,327.0,-3988.0,-858.0,25.0,-6.0,27.0,-410.0,614.0,529.0,4478.0,401.0,9306.0,9682165.0,721.0,0.0,-11986.0,4342.0,-4255.0,9369.0,-7700.0,10160.0,-8665.0,5550.0,63.0
97709925415.0,315.0,-3992.0,-855.0,30.0,-13.0,27.0,-411.0,615.0,527.0,4472.0,398.0,9303.0,9682165.0,721.0,0.0,-11983.0,4343.0,-4251.0,9375.0,-7696.0,10159.0,-8665.0,5557.0,63.0
97709945434.0,309.0,-4001.0,-856.0,32.0,-14.0,29.0,-412.0,617.0,524.0,4467.0,394.0,9299.0,9682330.0,721.0,0.0,-11979.0,4344.0,-4248.0,9381.0,-7692.0,10158.0,-8666.0,5564.0,63.0
97709965454.0,296.0,-4016.0,-848.0,28.0,-12.0,27.0,-408.0,618.0,524.0,4461.0,390.0,9296.0,9682330.0,721.0,0.0,-11975.0,4345.0,-4245.0,9387.0,-7688.0,10157.0,-8666.0,5571.0,63.0
97709985473.0,296.0,-4034.0,-859.0,23.0,-10.0,24.0,-407.0,616.0,523.0,4456.0,387.0,9293.0,9682330.0,721.0,0.0,-11972.0,4346.0,-4242.0,9392.0,-7685.0,10156.0,-8666.0,5577.0,63.0
97710005493.0,289.0,-3985.0,-840.0,15.0,-7.0,26.0,-409.0,619.0,525.0,4452.0,384.0,9291.0,9682330.0,721.0,0.0,-11969.0,4348.0,-4239.0,9396.0,-7682.0,10156.0,-8666.0,5581.0,63.0
97710025512.0,281.0,-4042.0,-848.0,10.0,-7.0,27.0,-405.0,620.0,527.0,4447.0,381.0,9289.0,9682330.0,721.0,0.0,-11966.0,4350.0,-4236.0,9399.0,-7679.0,10157.0,-8665.0,5586.0,63.0
97710045532.0,281.0,-4031.0,-852.0,3.0,-3.0,23.0,-403.0,622.0,525.0,4443.0,378.0,9289.0,9682078.0,721.0,0.0,-11965.0,4353.0,-4233.0,9401.0,-7676.0,10158.0,-8664.0,5589.0,63.0
97710065551.0,275.0,-4040.0,-847.0,8.0,-1.0,6.0,-403.0,622.0,529.0,4441.0,376.0,9288.0,9682078.0,721.0,0.0,-11964.0,4354.0,-4231.0,9403.0,-7674.0,10158.0,-8663.0,5592.0,63.0
97710085571.0,280.0,-4009.0,-839.0,10.0,1.0,-4.0,-405.0,621.0,525.0,4441.0,376.0,9286.0,9682078.0,721.0,0.0,-11962.0,4353.0,-4232.0,9405.0,-7673.0,10157.0,-8665.0,5593.0,63.0
97710105590.0,275.0,-4004.0,-836.0,9.0,2.0,1.0,-403.0,621.0,525.0,4440.0,375.0,9285.0,9682078.0,721.0,0.0,-11961.0,4354.0,-4232.0,9407.0,-7672.0,10156.0,-8666.0,5594.0,63.0
97710125610.0,280.0,-3994.0,-842.0,6.0,7.0,7.0,-402.0,624.0,532.0,4440.0,375.0,9284.0,9682270.0,721.0,0.0,-11959.0,4355.0,-4232.0,9408.0,-7670.0,10157.0,-8667.0,5595.0,63.0
97710145629.0,283.0,-4005.0,-834.0,7.0,12.0,8.0,-397.0,624.0,527.0,4441.0,374.0,9283.0,9682270.0,721.0,0.0,-11957.0,4357.0,-4233.0,9409.0,-7667.0,10157.0,-8668.0,5595.0,63.0
97710165649.0,289.0,-4000.0,-827.0,1.0,13.0,8.0,-399.0,625.0,529.0,4442.0,374.0,9282.0,9682270.0,721.0,0.0,-11956.0,4359.0,-4235.0,9409.0,-7665.0,10158.0,-8670.0,5595.0,63.0
97710185668.0,291.0,-4006.0,-836.0,-8.0,9.0,11.0,-398.0,621.0,530.0,4442.0,373.0,9283.0,9682270.0,721.0,0.0,-11956.0,4361.0,-4235.0,9408.0,-7663.0,10160.0,-8669.0,5594.0,63.0
97710205688.0,288.0,-4013.0,-839.0,-18.0,0.0,11.0,-395.0,621.0,531.0,4441.0,371.0,9284.0,9682099.0,721.0,0.0,-11956.0,4364.0,-4233.0,9407.0,-7663.0,10163.0,-8667.0,5594.0,63.0
97710225708.0,292.0,-4008.0,-850.0,-19.0,-6.0,5.0,-394.0,622.0,532.0,4440.0,371.0,9287.0,9682099.0,721.0,0.0,-11959.0,4365.0,-4231.0,9405.0,-7664.0,10165.0,-8664.0,5593.0,63.0
97710245727.0,290.0,-3982.0,-846.0,-13.0,-11.0,-1.0,-398.0,623.0,531.0,4439.0,370.0,9289.0,9682099.0,721.0,0.0,-11961.0,4365.0,-4229.0,9403.0,-7666.0,10166.0,-8661.0,5593.0,63.0
97710265747.0,273.0,-4014.0,-875.0,-9.0,-15.0,-2.0,-396.0,625.0,531.0,4437.0,370.0,9290.0,9682099.0,721.0,0.0,-11963.0,4364.0,-4226.0,9402.0,-7668.0,10166.0,-8659.0,5594.0,63.0
97710285766.0,288.0,-3990.0,-881.0,-10.0,-16.0,2.0,-395.0,621.0,532.0,4435.0,370.0,9292.0,9681907.0,721.0,0.0,-11965.0,4362.0,-4223.0,9401.0,-7671.0,10166.0,-8656.0,5594.0,63.0
97710305786.0,278.0,-4011.0,-888.0,-5.0,-9.0,-8.0,-396.0,623.0,534.0,4433.0,370.0,9293.0,9681907.0,721.0,0.0,-11966.0,4361.0,-4222.0,9400.0,-7672.0,10166.0,-8654.0,5595.0,63.0
97710325805.0,286.0,-3984.0,-879.0,-2.0,-1.0,-10.0,-394.0,621.0,533.0,4434.0,371.0,9294.0,9681907.0,721.0,0.0,-11968.0,4360.0,-4222.0,9399.0,-7674.0,10166.0,-8653.0,5593.0,63.0
97710345825.0,289.0,-3994.0,-886.0,1.0,1.0,0.0,-392.0,617.0,536.0,4434.0,371.0,9295.0,9681907.0,721.0,0.0,-11969.0,4360.0,-4222.0,9398.0,-7675.0,10166.0,-8653.0,5593.0,63.0
97710365844.0,297.0,-3990.0,-875.0,0.0,3.0,4.0,-390.0,621.0,534.0,4435.0,371.0,9296.0,9682008.0,721.0,0.0,-11969.0,4361.0,-4221.0,9397.0,-7675.0,10167.0,-8652.0,5592.0,63.0
97710385864.0,302.0,-3995.0,-862.0,4.0,2.0,7.0,-390.0,619.0,530.0,4435.0,371.0,9295.0,9682008.0,721.0,0.0,-11969.0,4362.0,-4222.0,9397.0,-7674.0,10168.0,-8652.0,5592.0,63.0
97710405883.0,298.0,-3983.0,-863.0,7.0,0.0,6.0,-393.0,617.0,528.0,4434.0,370.0,9295.0,9682008.0,721.0,0.0,-11968.0,4362.0,-4222.0,9398.0,-7673.0,10167.0,-8653.0,5593.0,63.0
97710425903.0,294.0,-3994.0,-873.0,7.0,-9.0,5.0,-386.0,619.0,524.0,4432.0,369.0,9294.0,9682084.0,721.0,0.0,-11967.0,4362.0,-4220.0,9400.0,-7673.0,10167.0,-8652.0,5595.0,63.0
97710445922.0,283.0,-4000.0,-878.0,8.0,-7.0,5.0,-388.0,616.0,522.0,4430.0,368.0,9293.0,9682084.0,721.0,0.0,-11967.0,4361.0,-4218.0,9402.0,-7673.0,10166.0,-8652.0,5598.0,63.0
97710465942.0,284.0,-4002.0,-878.0,7.0,-6.0,0.0,-390.0,617.0,521.0,4428.0,367.0,9293.0,9682084.0,721.0,0.0,-11967.0,4361.0,-4217.0,9402.0,-7673.0,10166.0,-8651.0,5599.0,63.0
97710485961.0,285.0,-4004.0,-879.0,6.0,0.0,-3.0,-397.0,617.0,524.0,4428.0,368.0,9293.0,9682084.0,721.0,0.0,-11967.0,4361.0,-4217.0,9402.0,-7673.0,10166.0,-8651.0,5599.0,63.0
97710505981.0,285.0,-4002.0,-883.0,6.0,1.0,-2.0,-395.0,620.0,524.0,4428.0,368.0,9293.0,9682084.0,721.0,0.0,-11967.0,4360.0,-4217.0,9402.0,-7674.0,10166.0,-8651.0,5599.0,63.0
97710526000.0,293.0,-4000.0,-880.0,4.0,6.0,-3.0,-396.0,623.0,527.0,4429.0,368.0,9293.0,9682084.0,721.0,0.0,-11967.0,4361.0,-4218.0,9402.0,-7673.0,10166.0,-8651.0,5598.0,63.0
97710546020.0,294.0,-4001.0,-876.0,3.0,8.0,0.0,-395.0,625.0,523.0,4431.0,369.0,9294.0,9682084.0,721.0,0.0,-11967.0,4361.0,-4219.0,9401.0,-7673.0,10166.0,-8652.0,5596.0,63.0
97710566040.0,298.0,-4010.0,-874.0,3.0,10.0,0.0,-394.0,626.0,521.0,4432.0,369.0,9294.0,9682084.0,721.0,0.0,-11967.0,4362.0,-4220.0,9400.0,-7672.0,10167.0,-8653.0,5595.0,63.0
97710586059.0,306.0,-3994.0,-858.0,3.0,10.0,0.0,-391.0,627.0,523.0,4434.0,370.0,9294.0,9682074.0,721.0,0.0,-11966.0,4362.0,-4222.0,9400.0,-7672.0,10167.0,-8654.0,5594.0,63.0
97710606079.0,303.0,-3984.0,-856.0,4.0,5.0,4.0,-393.0,626.0,523.0,4435.0,370.0,9293.0,9682074.0,721.0,0.0,-11966.0,4363.0,-4223.0,9400.0,-7671.0,10167.0,-8655.0,5593.0,63.0
97710626098.0,300.0,-3986.0,-857.0,7.0,1.0,5.0,-392.0,625.0,522.0,4436.0,370.0,9293.0,9682074.0,721.0,0.0,-11965.0,4363.0,-4224.0,9400.0,-7670.0,10167.0,-8656.0,5593.0,63.0
97710646118.0,303.0,-3990.0,-854.0,11.0,0.0,7.0,-395.0,626.0,523.0,4435.0,370.0,9291.0,9682074.0,721.0,0.0,-11964.0,4363.0,-4224.0,9402.0,-7669.0,10166.0,-8657.0,5594.0,63.0
97710666137.0,297.0,-3986.0,-858.0,13.0,0.0,8.0,-394.0,625.0,523.0,4434.0,369.0,9290.0,9682074.0,721.0,0.0,-11962.0,4364.0,-4224.0,9403.0,-7668.0,10166.0,-8657.0,5596.0,63.0
97710686157.0,288.0,-3995.0,-853.0,11.0,0.0,8.0,-391.0,621.0,522.0,4433.0,368.0,9289.0,9682195.0,721.0,0.0,-11961.0,4364.0,-4223.0,9405.0,-7666.0,10165.0,-8658.0,5598.0,63.0
97710706176.0,291.0,-4006.0,-847.0,10.0,2.0,9.0,-391.0,622.0,525.0,4432.0,367.0,9287.0,9682195.0,721.0,0.0,-11959.0,4365.0,-4223.0,9407.0,-7664.0,10165.0,-8659.0,5599.0,63.0
97710726196.0,300.0,-3971.0,-838.0,10.0,0.0,16.0,-394.0,623.0,523.0,4431.0,366.0,9286.0,9682195.0,721.0,0.0,-11957.0,4366.0,-4223.0,9409.0,-7662.0,10165.0,-8660.0,5601.0,63.0
97710746215.0,281.0,-4030.0,-852.0,8.0,-2.0,18.0,-395.0,623.0,521.0,4428.0,363.0,9285.0,9682195.0,721.0,0.0,-11955.0,4368.0,-4221.0,9411.0,-7659.0,10166.0,-8659.0,5604.0,63.0
97710766235.0,284.0,-4024.0,-853.0,7.0,-1.0,12.0,-390.0,620.0,520.0,4426.0,362.0,9284.0,9682180.0,721.0,0.0,-11954.0,4369.0,-4220.0,9413.0,-7658.0,10166.0,-8659.0,5606.0,63.0
97710786254.0,278.0,-4025.0,-834.0,14.0,-1.0,0.0,-394.0,622.0,524.0,4425.0,361.0,9282.0,9682180.0,721.0,0.0,-11953.0,4369.0,-4220.0,9415.0,-7657.0,10165.0,-8660.0,5608.0,63.0
97710806274.0,282.0,-3998.0,-832.0,16.0,-3.0,-2.0,-396.0,624.0,524.0,4425.0,362.0,9281.0,9682180.0,721.0,0.0,-11951.0,4368.0,-4220.0,9417.0,-7656.0,10163.0,-8662.0,5609.0,63.0
97710826293.0,268.0,-4003.0,-837.0,16.0,-5.0,8.0,-393.0,628.0,521.0,4423.0,361.0,9279.0,9682180.0,721.0,0.0,-11949.0,4367.0,-4220.0,9420.0,-7655.0,10162.0,-8663.0,5612.0,63.0
97710846313.0,269.0,-4011.0,-831.0,13.0,-1.0,11.0,-394.0,627.0,520.0,4421.0,359.0,9277.0,9682099.0,721.0,0.0,-11947.0,4368.0,-4219.0,9423.0,-7653.0,10161.0,-8664.0,5615.0,63.0
97710866333.0,270.0,-4010.0,-832.0,10.0,2.0,13.0,-395.0,624.0,522.0,4420.0,358.0,9276.0,9682099.0,721.0,0.0,-11946.0,4369.0,-4218.0,9425.0,-7651.0,10161.0,-8664.0,5617.0,63.0
97710886352.0,270.0,-4011.0,-822.0,5.0,8.0,10.0,-393.0,625.0,518.0,4420.0,357.0,9274.0,9682099.0,721.0,0.0,-11944.0,4371.0,-4218.0,9426.0,-7648.0,10162.0,-8665.0,5618.0,63.0
97710906372.0,275.0,-4003.0,-814.0,-6.0,1.0,8.0,-393.0,623.0,519.0,4419.0,356.0,9274.0,9682099.0,721.0,0.0,-11943.0,4372.0,-4218.0,9427.0,-7647.0,10162.0,-8665.0,5619.0,63.0
97710926391.0,286.0,-4018.0,-818.0,-16.0,-5.0,8.0,-395.0,624.0,520.0,4418.0,355.0,9276.0,9682150.0,721.0,0.0,-11944.0,4373.0,-4216.0,9426.0,-7647.0,10164.0,-8663.0,5619.0,63.0
97710946411.0,265.0,-4011.0,-827.0,-19.0,-12.0,1.0,-392.0,624.0,519.0,4416.0,354.0,9278.0,9682150.0,721.0,0.0,-11946.0,4374.0,-4213.0,9424.0,-7649.0,10166.0,-8660.0,5619.0,63.0
97710966430.0,274.0,-3995.0,-845.0,-15.0,-15.0,-4.0,-394.0,622.0,522.0,4414.0,354.0,9280.0,9682150.0,721.0,0.0,-11949.0,4373.0,-4211.0,9422.0,-7652.0,10166.0,-8657.0,5619.0,63.0
97710986450.0,267.0,-4023.0,-866.0,-16.0,-14.0,-8.0,-396.0,624.0,523.0,4413.0,354.0,9282.0,9682150.0,721.0,0.0,-11952.0,4371.0,-4209.0,9420.0,-7655.0,10166.0,-8654.0,5618.0,63.0
97711006469.0,259.0,-4012.0,-881.0,-17.0,-7.0,-3.0,-393.0,623.0,522.0,4412.0,355.0,9285.0,9682215.0,721.0,0.0,-11955.0,4371.0,-4207.0,9418.0,-7657.0,10167.0,-8651.0,5617.0,63.0
97711026489.0,266.0,-4017.0,-876.0,-14.0,3.0,-17.0,-391.0,625.0,524.0,4414.0,356.0,9286.0,9682215.0,721.0,0.0,-11957.0,4370.0,-4207.0,9415.0,-7660.0,10168.0,-8650.0,5615.0,63.0
97711046508.0,277.0,-3985.0,-866.0,-13.0,12.0,-12.0,-388.0,624.0,527.0,4417.0,358.0,9288.0,9682215.0,721.0,0.0,-11959.0,4369.0,-4210.0,9412.0,-7662.0,10168.0,-8650.0,5611.0,63.0
97711066528.0,275.0,-4008.0,-862.0,-12.0,11.0,2.0,-390.0,625.0,524.0,4419.0,358.0,9289.0,9682215.0,721.0,0.0,-11959.0,4371.0,-4211.0,9410.0,-7661.0,10170.0,-8650.0,5609.0,63.0
97711086547.0,286.0,-4001.0,-854.0,-15.0,10.0,0.0,-389.0,626.0,526.0,4421.0,359.0,9291.0,9682012.0,721.0,0.0,-11960.0,4373.0,-4211.0,9408.0,-7661.0,10172.0,-8649.0,5606.0,63.0
97711106567.0,295.0,-3997.0,-847.0,-12.0,5.0,-2.0,-387.0,624.0,527.0,4422.0,359.0,9292.0,9682012.0,721.0,0.0,-11961.0,4374.0,-4212.0,9406.0,-7661.0,10174.0,-8649.0,5604.0,63.0
97711126586.0,289.0,-3992.0,-858.0,-12.0,0.0,-8.0,-385.0,625.0,527.0,4423.0,360.0,9294.0,9682012.0,721.0,0.0,-11963.0,4374.0,-4212.0,9403.0,-7663.0,10175.0,-8648.0,5602.0,63.0
97711146606.0,292.0,-3982.0,-863.0,-10.0,-4.0,-9.0,-384.0,627.0,530.0,4425.0,361.0,9296.0,9682012.0,721.0,0.0,-11965.0,4372.0,-4212.0,9401.0,-7665.0,10175.0,-8647.0,5600.0,63.0
97711166625.0,287.0,-3992.0,-877.0,-11.0,-8.0,-3.0,-387.0,627.0,532.0,4424.0,361.0,9297.0,9682150.0,721.0,0.0,-11967.0,4372.0,-4211.0,9399.0,-7667.0,10175.0,-8645.0,5599.0,63.0
97711186645.0,284.0,-3982.0,-880.0,-11.0,-7.0,-8.0,-385.0,628.0,536.0,4424.0,362.0,9299.0,9682150.0,721.0,0.0,-11969.0,4371.0,-4210.0,9398.0,-7670.0,10175.0,-8643.0,5598.0,63.0
97711206665.0,275.0,-3988.0,-891.0,-9.0,-2.0,-6.0,-388.0,623.0,537.0,4424.0,363.0,9301.0,9682150.0,721.0,0.0,-11971.0,4370.0,-4210.0,9396.0,-7672.0,10176.0,-8641.0,5597.0,63.0
97711226684.0,280.0,-3995.0,-888.0,-7.0,3.0,-8.0,-389.0,620.0,531.0,4425.0,363.0,9302.0,9682150.0,721.0,0.0,-11973.0,4370.0,-4210.0,9394.0,-7673.0,10177.0,-8640.0,5595.0,63.0
97711246704.0,291.0,-4001.0,-894.0,-4.0,11.0,-9.0,-391.0,621.0,529.0,4428.0,365.0,9303.0,9682119.0,721.0,0.0,-11973.0,4370.0,-4212.0,9392.0,-7674.0,10177.0,-8641.0,5593.0,63.0
97711266723.0,288.0,-4001.0,-879.0,-3.0,15.0,-9.0,-392.0,623.0,529.0,4431.0,366.0,9303.0,9682119.0,721.0,0.0,-11973.0,4370.0,-4215.0,9390.0,-7674.0,10177.0,-8643.0,5590.0,63.0
97711286743.0,294.0,-4008.0,-877.0,-7.0,16.0,-6.0,-392.0,619.0,530.0,4434.0,367.0,9304.0,9682119.0,721.0,0.0,-11974.0,4371.0,-4217.0,9388.0,-7673.0,10178.0,-8644.0,5587.0,63.0
97711306762.0,298.0,-3989.0,-871.0,-11.0,15.0,-6.0,-392.0,620.0,530.0,4438.0,369.0,9305.0,9682119.0,721.0,0.0,-11975.0,4372.0,-4220.0,9386.0,-7673.0,10180.0,-8644.0,5583.0,63.0
97711326782.0,302.0,-3997.0,-862.0,-13.0,9.0,-5.0,-389.0,622.0,530.0,4440.0,370.0,9306.0,9682189.0,721.0,0.0,-11975.0,4373.0,-4221.0,9384.0,-7674.0,10181.0,-8645.0,5581.0,63.0
97711346801.0,299.0,-3983.0,-865.0,-11.0,1.0,-4.0,-390.0,619.0,527.0,4442.0,371.0,9307.0,9682189.0,721.0,0.0,-11977.0,4373.0,-4222.0,9381.0,-7675.0,10182.0,-8644.0,5579.0,63.0
97711366821.0,283.0,-3965.0,-873.0,-3.0,-1.0,-5.0,-394.0,617.0,530.0,4442.0,371.0,9308.0,9682189.0,721.0,0.0,-11978.0,4373.0,-4222.0,9380.0,-7676.0,10182.0,-8643.0,5577.0,63.0
97711386840.0,298.0,-3974.0,-882.0,5.0,-2.0,2.0,-393.0,614.0,530.0,4442.0,371.0,9309.0,9682189.0,721.0,0.0,-11978.0,4372.0,-4222.0,9380.0,-7676.0,10182.0,-8643.0,5577.0,63.0
97711406860.0,302.0,-4012.0,-897.0,9.0,-1.0,-2.0,-393.0,616.0,531.0,4442.0,372.0,9308.0,9682114.0,721.0,0.0,-11978.0,4372.0,-4222.0,9380.0,-7677.0,10181.0,-8643.0,5577.0,63.0
97711426879.0,318.0,-4046.0,-907.0,5.0,-4.0,-12.0,-397.0,619.0,527.0,4443.0,373.0,9308.0,9682114.0,721.0,0.0,-11979.0,4369.0,-4223.0,9380.0,-7678.0,10179.0,-8644.0,5577.0,63.0
97711446899.0,286.0,-3871.0,-848.0,-3.0,-3.0,2.0,-396.0,621.0,532.0,4443.0,373.0,9308.0,9682114.0,721.0,0.0,-11980.0,4369.0,-4222.0,9380.0,-7679.0,10179.0,-8643.0,5577.0,63.0
97711466918.0,271.0,-4081.0,-873.0,-4.0,-6.0,15.0,-399.0,618.0,531.0,4440.0,371.0,9308.0,9682114.0,721.0,0.0,-11979.0,4371.0,-4220.0,9381.0,-7678.0,10180.0,-8642.0,5579.0,63.0
97711486938.0,323.0,-4113.0,-945.0,-28.0,-21.0,19.0,-399.0,616.0,530.0,4436.0,369.0,9311.0,9682084.0,721.0,0.0,-11982.0,4372.0,-4215.0,9379.0,-7679.0,10183.0,-8637.0,5580.0,63.0
97711506958.0,336.0,-4030.0,-890.0,-40.0,-15.0,11.0,-395.0,617.0,527.0,4433.0,368.0,9316.0,9682084.0,721.0,0.0,-11986.0,4373.0,-4210.0,9375.0,-7682.0,10187.0,-8631.0,5580.0,63.0
97711526977.0,267.0,-3897.0,-830.0,-31.0,-13.0,0.0,-392.0,615.0,525.0,4431.0,367.0,9320.0,9682084.0,721.0,0.0,-11989.0,4374.0,-4206.0,9372.0,-7685.0,10189.0,-8625.0,5579.0,63.0
97711546997.0,254.0,-3905.0,-837.0,12.0,-16.0,7.0,-392.0,620.0,527.0,4428.0,365.0,9320.0,9682084.0,721.0,0.0,-11990.0,4374.0,-4204.0,9373.0,-7685.0,10189.0,-8624.0,5582.0,63.0
97711567016.0,291.0,-3921.0,-836.0,49.0,-13.0,23.0,-395.0,618.0,525.0,4424.0,364.0,9315.0,9682260.0,721.0,0.0,-11985.0,4372.0,-4203.0,9380.0,-7682.0,10185.0,-8627.0,5588.0,63.0
97711587036.0,264.0,-3942.0,-852.0,67.0,-18.0,34.0,-392.0,620.0,526.0,4402.0,359.0,9309.0,9682260.0,721.0,0.0,-11985.0,4355.0,-4185.0,9395.0,-7676.0,10182.0,-8630.0,5598.0,63.0
97711607055.0,249.0,-4033.0,-937.0,61.0,-20.0,35.0,-390.0,621.0,528.0,4376.0,354.0,9303.0,9682260.0,721.0,0.0,-11986.0,4336.0,-4166.0,9411.0,-7671.0,10178.0,-8632.0,5608.0,63.0
97711627075.0,257.0,-4021.0,-903.0,33.0,-7.0,41.0,-389.0,620.0,533.0,4370.0,350.0,9299.0,9682260.0,721.0,0.0,-11981.0,4339.0,-4162.0,9419.0,-7665.0,10177.0,-8633.0,5617.0,63.0
97711647094.0,250.0,-4028.0,-875.0,14.0,5.0,28.0,-388.0,619.0,533.0,4366.0,346.0,9297.0,9682249.0,721.0,0.0,-11977.0,4343.0,-4160.0,9423.0,-7660.0,10178.0,-8633.0,5621.0,63.0
97711667114.0,269.0,-4014.0,-854.0,15.0,8.0,17.0,-384.0,618.0,536.0,4365.0,344.0,9295.0,9682249.0,721.0,0.0,-11974.0,4345.0,-4160.0,9425.0,-7656.0,10178.0,-8635.0,5623.0,63.0
97711687133.0,282.0,-4087.0,-883.0,6.0,0.0,12.0,-382.0,619.0,531.0,4364.0,343.0,9294.0,9682249.0,721.0,0.0,-11973.0,4346.0,-4159.0,9427.0,-7654.0,10179.0,-8635.0,5625.0,63.0
97711707153.0,250.0,-4030.0,-857.0,-8.0,-14.0,15.0,-383.0,620.0,534.0,4360.0,341.0,9294.0,9682249.0,721.0,0.0,-11973.0,4348.0,-4156.0,9428.0,-7654.0,10180.0,-8633.0,5627.0,63.0
97711727172.0,255.0,-4043.0,-854.0,-10.0,-25.0,19.0,-382.0,623.0,537.0,4355.0,338.0,9295.0,9682008.0,721.0,0.0,-11974.0,4348.0,-4151.0,9428.0,-7654.0,10181.0,-8629.0,5631.0,63.0
97711747192.0,260.0,-4061.0,-852.0,-16.0,-22.0,1.0,-378.0,620.0,535.0,4351.0,337.0,9297.0,9682008.0,721.0,0.0,-11976.0,4347.0,-4146.0,9428.0,-7657.0,10181.0,-8625.0,5633.0,63.0
97711767211.0,275.0,-4048.0,-824.0,-17.0,-20.0,-27.0,-379.0,619.0,532.0,4351.0,339.0,9299.0,9682099.0,721.0,0.0,-11979.0,4343.0,-4145.0,9426.0,-7662.0,10180.0,-8623.0,5632.0,63.0
97711787231.0,262.0,-4005.0,-840.0,-29.0,-25.0,-40.0,-377.0,619.0,532.0,4352.0,342.0,9302.0,9682099.0,721.0,0.0,-11985.0,4337.0,-4145.0,9423.0,-7670.0,10177.0,-8621.0,5629.0,63.0
97711807250.0,268.0,-3991.0,-885.0,-37.0,-27.0,-25.0,-378.0,620.0,534.0,4352.0,345.0,9307.0,9682099.0,721.0,0.0,-11992.0,4332.0,-4143.0,9417.0,-7678.0,10177.0,-8616.0,5626.0,63.0
97711827270.0,237.0,-3949.0,-891.0,-57.0,-17.0,-19.0,-383.0,620.0,533.0,4347.0,346.0,9314.0,9682099.0,721.0,0.0,-12001.0,4326.0,-4135.0,9411.0,-7685.0,10179.0,-8609.0,5622.0,63.0
97711847290.0,234.0,-3999.0,-906.0,-47.0,-2.0,-8.0,-383.0,621.0,535.0,4348.0,347.0,9320.0,9681989.0,721.0,0.0,-12007.0,4327.0,-4132.0,9404.0,-7690.0,10183.0,-8603.0,5618.0,63.0
97711867309.0,241.0,-4013.0,-921.0,-68.0,13.0,-6.0,-384.0,621.0,537.0,4334.0,347.0,9328.0,9681989.0,721.0,0.0,-12020.0,4313.0,-4117.0,9401.0,-7693.0,10189.0,-8597.0,5611.0,63.0
97711887329.0,317.0,-3870.0,-782.0,-52.0,17.0,2.0,-384.0,618.0,538.0,4339.0,349.0,9333.0,9681989.0,721.0,0.0,-12025.0,4316.0,-4118.0,9393.0,-7695.0,10194.0,-8594.0,5604.0,63.0
97711907348.0,195.0,-4099.0,-889.0,-13.0,7.0,-18.0,-383.0,616.0,539.0,4340.0,348.0,9335.0,9681989.0,721.0,0.0,-12026.0,4318.0,-4117.0,9390.0,-7696.0,10197.0,-8592.0,5602.0,63.0
97711927368.0,303.0,-3974.0,-964.0,-43.0,7.0,8.0,-390.0,614.0,543.0,4343.0,350.0,9341.0,9681997.0,721.0,0.0,-12031.0,4319.0,-4118.0,9383.0,-7699.0,10201.0,-8588.0,5596.0,63.0
97711947387.0,265.0,-4059.0,-852.0,-56.0,14.0,-3.0,-387.0,613.0,541.0,4344.0,349.0,9345.0,9681997.0,721.0,0.0,-12034.0,4324.0,-4116.0,9378.0,-7699.0,10206.0,-8584.0,5592.0,63.0
97711967407.0,277.0,-3989.0,-884.0,-46.0,12.0,-39.0,-386.0,610.0,538.0,4350.0,353.0,9351.0,9681997.0,721.0,0.0,-12041.0,4323.0,-4119.0,9369.0,-7705.0,10209.0,-8582.0,5583.0,63.0
97711987426.0,292.0,-3924.0,-878.0,-38.0,9.0,-27.0,-391.0,613.0,537.0,4356.0,358.0,9356.0,9681997.0,721.0,0.0,-12046.0,4321.0,-4122.0,9361.0,-7711.0,10210.0,-8580.0,5575.0,63.0
97712007446.0,272.0,-4025.0,-850.0,-18.0,2.0,-29.0,-392.0,615.0,535.0,4359.0,360.0,9357.0,9682176.0,721.0,0.0,-12048.0,4319.0,-4124.0,9358.0,-7714.0,10210.0,-8580.0,5571.0,63.0
97712027465.0,315.0,-3937.0,-895.0,-1.0,-9.0,-24.0,-390.0,616.0,534.0,4362.0,364.0,9359.0,9682176.0,721.0,0.0,-12051.0,4315.0,-4126.0,9355.0,-7719.0,10208.0,-8580.0,5568.0,63.0
97712047485.0,293.0,-3994.0,-919.0,4.0,-22.0,-30.0,-389.0,616.0,533.0,4362.0,366.0,9359.0,9682176.0,721.0,0.0,-12053.0,4310.0,-4126.0,9356.0,-7723.0,10204.0,-8580.0,5568.0,63.0
97712067504.0,301.0,-3933.0,-916.0,7.0,-33.0,-25.0,-393.0,616.0,533.0,4361.0,368.0,9359.0,9682176.0,721.0,0.0,-12056.0,4303.0,-4126.0,9356.0,-7729.0,10200.0,-8580.0,5569.0,63.0
97712087524.0,306.0,-3943.0,-902.0,24.0,-38.0,-22.0,-391.0,613.0,533.0,4359.0,370.0,9357.0,9682125.0,721.0,0.0,-12056.0,4295.0,-4124.0,9359.0,-7733.0,10194.0,-8581.0,5572.0,63.0
97712107543.0,313.0,-3943.0,-924.0,45.0,-41.0,-20.0,-389.0,612.0,535.0,4341.0,371.0,9354.0,9682125.0,721.0,0.0,-12062.0,4271.0,-4110.0,9369.0,-7737.0,10186.0,-8583.0,5578.0,63.0
97712127563.0,304.0,-3919.0,-936.0,51.0,-40.0,-4.0,-390.0,615.0,532.0,4335.0,371.0,9350.0,9682125.0,721.0,0.0,-12060.0,4264.0,-4107.0,9376.0,-7740.0,10179.0,-8585.0,5585.0,63.0
97712147583.0,302.0,-3967.0,-967.0,46.0,-29.0,19.0,-390.0,617.0,531.0,4328.0,369.0,9345.0,9682125.0,721.0,0.0,-12057.0,4260.0,-4103.0,9384.0,-7739.0,10174.0,-8586.0,5593.0,63.0
97712167602.0,311.0,-3935.0,-942.0,39.0,-14.0,33.0,-391.0,618.0,534.0,4323.0,365.0,9341.0,9682160.0,721.0,0.0,-12053.0,4260.0,-4100.0,9390.0,-7735.0,10172.0,-8587.0,5600.0,63.0
97712187622.0,305.0,-3993.0,-953.0,37.0,-3.0,43.0,-393.0,619.0,538.0,4317.0,361.0,9337.0,9682160.0,721.0,0.0,-12048.0,4264.0,-4096.0,9397.0,-7729.0,10172.0,-8588.0,5608.0,63.0
97712207641.0,327.0,-4053.0,-979.0,31.0,3.0,44.0,-391.0,621.0,538.0,4312.0,356.0,9334.0,9682160.0,721.0,0.0,-12043.0,4268.0,-4094.0,9402.0,-7723.0,10173.0,-8588.0,5614.0,63.0
97712227661.0,353.0,-3959.0,-910.0,38.0,4.0,46.0,-386.0,622.0,536.0,4309.0,352.0,9330.0,9682160.0,721.0,0.0,-12037.0,4272.0,-4093.0,9408.0,-7716.0,10173.0,-8590.0,5619.0,63.0
97712247680.0,308.0,-3975.0,-908.0,49.0,-2.0,43.0,-387.0,619.0,537.0,4293.0,347.0,9326.0,9681884.0,721.0,0.0,-12035.0,4266.0,-4081.0,9419.0,-7708.0,10173.0,-8593.0,5627.0,63.0
97712267700.0,307.0,-3976.0,-909.0,59.0,-15.0,49.0,-388.0,618.0,536.0,4280.0,342.0,9321.0,9681884.0,721.0,0.0,-12031.0,4262.0,-4072.0,9429.0,-7701.0,10171.0,-8595.0,5637.0,63.0
97712287719.0,314.0,-3960.0,-899.0,58.0,-24.0,55.0,-387.0,621.0,535.0,4266.0,335.0,9315.0,9681884.0,721.0,0.0,-12027.0,4259.0,-4061.0,9441.0,-7695.0,10169.0,-8596.0,5649.0,63.0
97712307739.0,293.0,-3978.0,-882.0,74.0,-27.0,60.0,-383.0,623.0,531.0,4248.0,328.0,9308.0,9681884.0,721.0,0.0,-12021.0,4254.0,-4049.0,9456.0,-7686.0,10165.0,-8598.0,5663.0,63.0
97712327758.0,293.0,-3951.0,-868.0,85.0,-37.0,67.0,-380.0,624.0,532.0,4221.0,320.0,9300.0,9681948.0,721.0,0.0,-12018.0,4239.0,-4029.0,9475.0,-7678.0,10161.0,-8600.0,5679.0,63.0
97712347778.0,263.0,-3999.0,-852.0,92.0,-49.0,86.0,-383.0,625.0,536.0,4190.0,305.0,9285.0,9681948.0,721.0,0.0,-12004.0,4236.0,-4008.0,9503.0,-7662.0,10154.0,-8602.0,5709.0,63.0
97712367797.0,244.0,-4026.0,-841.0,87.0,-57.0,85.0,-382.0,626.0,536.0,4164.0,294.0,9276.0,9681948.0,721.0,0.0,-11997.0,4230.0,-3988.0,9522.0,-7652.0,10150.0,-8602.0,5730.0,63.0
97712387817.0,223.0,-4009.0,-837.0,79.0,-56.0,80.0,-379.0,628.0,531.0,4143.0,283.0,9268.0,9681948.0,721.0,0.0,-11989.0,4230.0,-3973.0,9539.0,-7644.0,10146.0,-8601.0,5751.0,63.0
97712407836.0,195.0,-4045.0,-828.0,71.0,-54.0,71.0,-377.0,628.0,534.0,4114.0,273.0,9261.0,9681742.0,721.0,0.0,-11986.0,4217.0,-3950.0,9558.0,-7636.0,10142.0,-8600.0,5770.0,63.0
97712427856.0,196.0,-4037.0,-816.0,64.0,-53.0,66.0,-376.0,627.0,535.0,4089.0,264.0,9254.0,9681742.0,721.0,0.0,-11982.0,4209.0,-3931.0,9575.0,-7629.0,10138.0,-8598.0,5788.0,63.0
97712447875.0,168.0,-4066.0,-806.0,60.0,-45.0,57.0,-376.0,626.0,529.0,4081.0,256.0,9248.0,9681742.0,721.0,0.0,-11972.0,4218.0,-3927.0,9584.0,-7623.0,10134.0,-8597.0,5804.0,63.0
97712467895.0,157.0,-4036.0,-790.0,52.0,-37.0,48.0,-377.0,625.0,525.0,4076.0,249.0,9243.0,9681742.0,721.0,0.0,-11964.0,4226.0,-3925.0,9592.0,-7617.0,10131.0,-8597.0,5818.0,63.0
97712487915.0,153.0,-4042.0,-787.0,48.0,-34.0,57.0,-369.0,625.0,523.0,4050.0,242.0,9238.0,9681939.0,721.0,0.0,-11964.0,4212.0,-3903.0,9607.0,-7611.0,10128.0,-8596.0,5831.0,63.0
97712507934.0,161.0,-4039.0,-769.0,37.0,-30.0,55.0,-369.0,624.0,524.0,4038.0,234.0,9234.0,9681939.0,721.0,0.0,-11959.0,4214.0,-3894.0,9616.0,-7605.0,10127.0,-8595.0,5843.0,63.0
97712527954.0,156.0,-4040.0,-766.0,30.0,-29.0,52.0,-366.0,627.0,524.0,4020.0,228.0,9231.0,9681939.0,721.0,0.0,-11958.0,4209.0,-3879.0,9626.0,-7600.0,10127.0,-8592.0,5854.0,63.0
97712547973.0,151.0,-4032.0,-758.0,26.0,-31.0,44.0,-371.0,629.0,524.0,4010.0,222.0,9227.0,9681939.0,721.0,0.0,-11954.0,4211.0,-3872.0,9633.0,-7595.0,10126.0,-8590.0,5864.0,63.0
97712567993.0,143.0,-4025.0,-762.0,24.0,-37.0,42.0,-370.0,629.0,526.0,4000.0,216.0,9225.0,9682189.0,721.0,0.0,-11950.0,4212.0,-3864.0,9640.0,-7592.0,10125.0,-8587.0,5874.0,63.0
97712588012.0,135.0,-4031.0,-764.0,22.0,-42.0,35.0,-370.0,633.0,526.0,3990.0,211.0,9222.0,9682189.0,721.0,0.0,-11947.0,4212.0,-3855.0,9647.0,-7590.0,10123.0,-8584.0,5884.0,63.0
97712608032.0,139.0,-4024.0,-776.0,20.0,-47.0,27.0,-367.0,635.0,524.0,3980.0,206.0,9220.0,9682189.0,721.0,0.0,-11946.0,4210.0,-3847.0,9653.0,-7590.0,10121.0,-8581.0,5894.0,63.0
97712628051.0,132.0,-4031.0,-777.0,22.0,-47.0,20.0,-363.0,635.0,524.0,3970.0,203.0,9217.0,9682189.0,721.0,0.0,-11944.0,4207.0,-3840.0,9659.0,-7590.0,10118.0,-8577.0,5903.0,63.0
97712648071.0,132.0,-4012.0,-782.0,23.0,-45.0,15.0,-365.0,635.0,521.0,3962.0,200.0,9215.0,9682257.0,721.0,0.0,-11943.0,4204.0,-3833.0,9664.0,-7591.0,10115.0,-8575.0,5911.0,63.0
97712668090.0,136.0,-4014.0,-774.0,26.0,-44.0,14.0,-365.0,633.0,525.0,3954.0,197.0,9212.0,9682257.0,721.0,0.0,-11941.0,4200.0,-3827.0,9671.0,-7592.0,10111.0,-8573.0,5920.0,63.0
97712688110.0,153.0,-4010.0,-776.0,26.0,-44.0,16.0,-365.0,632.0,522.0,3946.0,195.0,9209.0,9682257.0,721.0,0.0,-11940.0,4196.0,-3821.0,9676.0,-7593.0,10107.0,-8572.0,5928.0,63.0
97712708129.0,164.0,-4009.0,-778.0,26.0,-46.0,18.0,-363.0,636.0,523.0,3938.0,192.0,9207.0,9682257.0,721.0,0.0,-11938.0,4193.0,-3815.0,9682.0,-7593.0,10103.0,-8570.0,5936.0,63.0
97712728149.0,165.0,-4015.0,-775.0,25.0,-49.0,21.0,-367.0,636.0,522.0,3930.0,189.0,9204.0,9682008.0,721.0,0.0,-11937.0,4189.0,-3808.0,9689.0,-7594.0,10099.0,-8567.0,5945.0,63.0
97712748168.0,195.0,-4012.0,-770.0,23.0,-60.0,19.0,-365.0,637.0,521.0,3920.0,186.0,9201.0,9682008.0,721.0,0.0,-11936.0,4184.0,-3801.0,9695.0,-7596.0,10095.0,-8565.0,5954.0,63.0
97712768188.0,193.0,-4022.0,-790.0,23.0,-72.0,10.0,-365.0,639.0,525.0,3907.0,183.0,9200.0,9682008.0,721.0,0.0,-11937.0,4176.0,-3790.0,9701.0,-7600.0,10089.0,-8560.0,5964.0,63.0
97712788208.0,230.0,-3998.0,-803.0,20.0,-88.0,13.0,-363.0,638.0,527.0,3892.0,181.0,9199.0,9682008.0,721.0,0.0,-11940.0,4165.0,-3776.0,9707.0,-7606.0,10083.0,-8555.0,5975.0,63.0
97712808227.0,271.0,-3988.0,-788.0,12.0,-114.0,17.0,-361.0,634.0,526.0,3873.0,177.0,9199.0,9681984.0,721.0,0.0,-11945.0,4151.0,-3759.0,9715.0,-7614.0,10075.0,-8548.0,5988.0,63.0
97712828247.0,319.0,-3941.0,-786.0,13.0,-156.0,20.0,-357.0,634.0,526.0,3847.0,173.0,9199.0,9681984.0,721.0,0.0,-11952.0,4131.0,-3735.0,9724.0,-7625.0,10066.0,-8537.0,6005.0,63.0
97712848266.0,406.0,-3861.0,-748.0,22.0,-225.0,51.0,-357.0,636.0,526.0,3821.0,166.0,9198.0,9681984.0,721.0,0.0,-11956.0,4117.0,-3711.0,9734.0,-7639.0,10053.0,-8522.0,6030.0,63.0
97712868286.0,532.0,-3847.0,-732.0,46.0,-337.0,96.0,-353.0,640.0,523.0,3773.0,153.0,9195.0,9681984.0,721.0,0.0,-11961.0,4093.0,-3668.0,9753.0,-7658.0,10035.0,-8498.0,6070.0,63.0
97712888305.0,604.0,-3826.0,-815.0,79.0,-483.0,120.0,-349.0,640.0,527.0,3695.0,134.0,9190.0,9682108.0,721.0,0.0,-11971.0,4049.0,-3598.0,9786.0,-7683.0,10008.0,-8463.0,6130.0,63.0
97712908325.0,654.0,-3777.0,-908.0,92.0,-636.0,102.0,-352.0,641.0,532.0,3610.0,113.0,9184.0,9682108.0,721.0,0.0,-11981.0,4000.0,-3522.0,9821.0,-7723.0,9970.0,-8417.0,6206.0,63.0
97712928344.0,680.0,-3742.0,-1025.0,93.0,-805.0,86.0,-344.0,642.0,534.0,3493.0,90.0,9179.0,9682108.0,721.0,0.0,-12002.0,3919.0,-3415.0,9866.0,-7779.0,9918.0,-8359.0,6297.0,63.0
97712948364.0,693.0,-3862.0,-1233.0,93.0,-962.0,106.0,-338.0,641.0,534.0,3362.0,62.0,9174.0,9682108.0,721.0,0.0,-12026.0,3832.0,-3294.0,9912.0,-7848.0,9858.0,-8284.0,6404.0,63.0
97712968383.0,599.0,-3886.0,-1316.0,111.0,-1066.0,84.0,-333.0,639.0,537.0,3215.0,32.0,9168.0,9682104.0,721.0,0.0,-12050.0,3734.0,-3158.0,9965.0,-7925.0,9787.0,-8200.0,6525.0,63.0
97712988403.0,537.0,-3763.0,-1379.0,166.0,-1152.0,88.0,-320.0,641.0,541.0,3047.0,2.0,9156.0,9682104.0,721.0,0.0,-12076.0,3609.0,-3003.0,10027.0,-8008.0,9704.0,-8112.0,6657.0,63.0
97713008422.0,427.0,-3834.0,-1414.0,238.0,-1215.0,132.0,-312.0,644.0,538.0,2889.0,-33.0,9135.0,9682104.0,721.0,0.0,-12084.0,3509.0,-2859.0,10095.0,-8085.0,9612.0,-8022.0,6805.0,63.0
97713028442.0,343.0,-3892.0,-1434.0,290.0,-1251.0,146.0,-298.0,645.0,543.0,2705.0,-73.0,9107.0,9682104.0,721.0,0.0,-12090.0,3382.0,-2691.0,10176.0,-8157.0,9512.0,-7930.0,6963.0,63.0
97713048461.0,255.0,-4080.0,-1459.0,295.0,-1253.0,121.0,-280.0,645.0,546.0,2517.0,-110.0,9076.0,9682018.0,721.0,0.0,-12096.0,3245.0,-2518.0,10258.0,-8230.0,9408.0,-7839.0,7121.0,63.0
97713068481.0,152.0,-4159.0,-1417.0,260.0,-1228.0,69.0,-266.0,649.0,548.0,2348.0,-141.0,9047.0,9682018.0,721.0,0.0,-12099.0,3117.0,-2360.0,10332.0,-8305.0,9301.0,-7749.0,7271.0,63.0
97713088500.0,92.0,-4052.0,-1326.0,242.0,-1187.0,38.0,-251.0,656.0,552.0,2185.0,-167.0,9019.0,9682018.0,721.0,0.0,-12103.0,2983.0,-2207.0,10400.0,-8381.0,9194.0,-7663.0,7410.0,63.0
97713108520.0,62.0,-4015.0,-1298.0,234.0,-1137.0,24.0,-246.0,657.0,556.0,2055.0,-189.0,8993.0,9682018.0,721.0,0.0,-12101.0,2878.0,-2084.0,10458.0,-8455.0,9088.0,-7579.0,7542.0,63.0
97713128540.0,94.0,-3943.0,-1284.0,228.0,-1081.0,17.0,-231.0,657.0,562.0,1913.0,-208.0,8966.0,9682134.0,721.0,0.0,-12102.0,2752.0,-1947.0,10515.0,-8525.0,8985.0,-7500.0,7664.0,63.0
97713148559.0,156.0,-3872.0,-1292.0,221.0,-1029.0,31.0,-217.0,656.0,566.0,1777.0,-226.0,8941.0,9682134.0,721.0,0.0,-12103.0,2632.0,-1816.0,10569.0,-8590.0,8887.0,-7423.0,7781.0,63.0
97713168579.0,196.0,-3864.0,-1291.0,208.0,-981.0,37.0,-203.0,654.0,564.0,1653.0,-244.0,8917.0,9682134.0,721.0,0.0,-12100.0,2524.0,-1695.0,10618.0,-8651.0,8792.0,-7348.0,7891.0,63.0
97713188598.0,242.0,-3748.0,-1248.0,216.0,-947.0,40.0,-183.0,657.0,561.0,1523.0,-261.0,8893.0,9682134.0,721.0,0.0,-12098.0,2407.0,-1567.0,10667.0,-8707.0,8700.0,-7277.0,7997.0,63.0
97713208618.0,264.0,-3579.0,-1203.0,265.0,-934.0,86.0,-165.0,658.0,557.0,1393.0,-280.0,8864.0,9682366.0,721.0,0.0,-12089.0,2295.0,-1439.0,10720.0,-8755.0,8609.0,-7206.0,8106.0,63.0
97713228637.0,231.0,-3514.0,-1198.0,333.0,-927.0,147.0,-151.0,660.0,557.0,1259.0,-306.0,8827.0,9682366.0,721.0,0.0,-12070.0,2194.0,-1307.0,10780.0,-8790.0,8518.0,-7136.0,8225.0,63.0
97713248657.0,157.0,-3536.0,-1173.0,384.0,-916.0,187.0,-137.0,666.0,556.0,1125.0,-336.0,8784.0,9682366.0,721.0,0.0,-12040.0,2102.0,-1174.0,10846.0,-8813.0,8428.0,-7067.0,8352.0,63.0
97713268676.0,96.0,-3524.0,-1181.0,415.0,-898.0,217.0,-127.0,670.0,553.0,1001.0,-370.0,8737.0,9682366.0,721.0,0.0,-12003.0,2027.0,-1050.0,10915.0,-8829.0,8339.0,-6998.0,8481.0,63.0
97713288696.0,18.0,-3626.0,-1223.0,403.0,-878.0,236.0,-111.0,672.0,549.0,864.0,-404.0,8690.0,9682245.0,721.0,0.0,-11967.0,1940.0,-911.0,10982.0,-8841.0,8254.0,-6928.0,8610.0,63.0
97713308715.0,-116.0,-3719.0,-1233.0,345.0,-839.0,217.0,-97.0,675.0,541.0,738.0,-438.0,8647.0,9682245.0,721.0,0.0,-11933.0,1866.0,-783.0,11042.0,-8853.0,8174.0,-6856.0,8730.0,63.0
97713328735.0,-235.0,-3750.0,-1194.0,266.0,-779.0,159.0,-82.0,676.0,536.0,619.0,-465.0,8613.0,9682245.0,721.0,0.0,-11908.0,1786.0,-659.0,11090.0,-8871.0,8099.0,-6787.0,8835.0,63.0
97713348754.0,-325.0,-3663.0,-1093.0,217.0,-719.0,105.0,-69.0,679.0,530.0,518.0,-486.0,8584.0,9682245.0,721.0,0.0,-11888.0,1713.0,-553.0,11128.0,-8894.0,8028.0,-6723.0,8925.0,63.0
97713368774.0,-386.0,-3582.0,-1052.0,198.0,-669.0,84.0,-56.0,684.0,523.0,426.0,-502.0,8559.0,9682095.0,721.0,0.0,-11871.0,1641.0,-456.0,11162.0,-8918.0,7960.0,-6665.0,9005.0,63.0
97713388793.0,-436.0,-3619.0,-987.0,165.0,-617.0,60.0,-41.0,690.0,519.0,334.0,-515.0,8537.0,9682095.0,721.0,0.0,-11858.0,1562.0,-358.0,11191.0,-8942.0,7897.0,-6610.0,9077.0,63.0
97713408813.0,-474.0,-3685.0,-894.0,148.0,-551.0,-3.0,-30.0,692.0,510.0,262.0,-522.0,8517.0,9682095.0,721.0,0.0,-11845.0,1494.0,-282.0,11216.0,-8967.0,7836.0,-6565.0,9138.0,63.0
97713428833.0,-516.0,-3580.0,-808.0,125.0,-476.0,-93.0,-22.0,696.0,508.0,213.0,-518.0,8500.0,9682095.0,721.0,0.0,-11835.0,1428.0,-229.0,11236.0,-8995.0,7775.0,-6534.0,9185.0,63.0
97713448852.0,-530.0,-3615.0,-635.0,139.0,-391.0,-145.0,-16.0,698.0,505.0,183.0,-507.0,8482.0,9682240.0,721.0,0.0,-11823.0,1367.0,-198.0,11257.0,-9022.0,7714.0,-6517.0,9222.0,63.0
97713468872.0,-516.0,-3668.0,-359.0,172.0,-311.0,-168.0,-13.0,697.0,498.0,175.0,-492.0,8459.0,9682240.0,721.0,0.0,-11804.0,1320.0,-190.0,11283.0,-9040.0,7654.0,-6515.0,9255.0,63.0
97713488891.0,-410.0,-3872.0,-15.0,178.0,-288.0,-154.0,-11.0,702.0,494.0,174.0,-476.0,8434.0,9682240.0,721.0,0.0,-11781.0,1278.0,-188.0,11312.0,-9053.0,7595.0,-6520.0,9287.0,63.0
97713508911.0,-443.0,-4090.0,376.0,127.0,-332.0,-160.0,-4.0,706.0,486.0,153.0,-461.0,8410.0,9682240.0,721.0,0.0,-11761.0,1217.0,-166.0,11339.0,-9068.0,7535.0,-6520.0,9321.0,63.0
97713528930.0,-504.0,-4211.0,424.0,1.0,-397.0,-144.0,-1.0,706.0,486.0,125.0,-447.0,8399.0,9682336.0,721.0,0.0,-11756.0,1153.0,-136.0,11351.0,-9099.0,7479.0,-6502.0,9348.0,63.0
97713548950.0,-561.0,-4720.0,448.0,-211.0,-411.0,-138.0,2.0,708.0,486.0,88.0,-435.0,8410.0,9682336.0,721.0,0.0,-11774.0,1085.0,-95.0,11340.0,-9150.0,7434.0,-6465.0,9360.0,63.0
97713568969.0,-503.0,-5159.0,640.0,-475.0,-380.0,-201.0,3.0,709.0,482.0,64.0,-417.0,8446.0,9682336.0,721.0,0.0,-11820.0,1021.0,-70.0,11299.0,-9226.0,7402.0,-6417.0,9344.0,63.0
97713588989.0,-399.0,-5716.0,663.0,-713.0,-341.0,-349.0,5.0,710.0,477.0,59.0,-384.0,8511.0,9682336.0,721.0,0.0,-11896.0,948.0,-63.0,11225.0,-9335.0,7378.0,-6366.0,9290.0,63.0
97713609008.0,-361.0,-5371.0,631.0,-806.0,-310.0,-478.0,5.0,706.0,477.0,70.0,-336.0,8594.0,9682088.0,721.0,0.0,-11991.0,858.0,-75.0,11130.0,-9467.0,7352.0,-6319.0,9208.0,63.0
97713629028.0,-369.0,-5321.0,662.0,-666.0,-237.0,-439.0,3.0,704.0,477.0,97.0,-289.0,8666.0,9682088.0,721.0,0.0,-12073.0,787.0,-103.0,11047.0,-9584.0,7326.0,-6285.0,9131.0,63.0
97713649047.0,-661.0,-5610.0,800.0,-443.0,-201.0,-370.0,3.0,698.0,490.0,107.0,-252.0,8713.0,9682088.0,721.0,0.0,-12128.0,715.0,-113.0,10991.0,-9668.0,7298.0,-6264.0,9079.0,63.0
97713669067.0,-503.0,-5831.0,694.0,-143.0,-257.0,8.0,2.0,695.0,497.0,90.0,-243.0,8732.0,9682088.0,721.0,0.0,-12150.0,675.0,-94.0,10970.0,-9709.0,7275.0,-6236.0,9073.0,63.0
97713689086.0,-281.0,-7222.0,210.0,6.0,-137.0,180.0,0.0,690.0,501.0,58.0,-263.0,8731.0,9682249.0,721.0,0.0,-12148.0,685.0,-61.0,10971.0,-9709.0,7274.0,-6202.0,9098.0,63.0
97713709106.0,-115.0,-7063.0,196.0,-26.0,73.0,-202.0,0.0,691.0,505.0,74.0,-250.0,8729.0,9682249.0,721.0,0.0,-12147.0,673.0,-78.0,10973.0,-9714.0,7264.0,-6217.0,9090.0,63.0
97713729125.0,199.0,-6502.0,381.0,-44.0,190.0,-366.0,0.0,688.0,510.0,143.0,-204.0,8730.0,9682249.0,721.0,0.0,-12149.0,646.0,-150.0,10971.0,-9733.0,7239.0,-6273.0,9051.0,63.0
97713749145.0,209.0,-6195.0,517.0,-6.0,189.0,-174.0,0.0,688.0,509.0,191.0,-175.0,8727.0,9682249.0,721.0,0.0,-12147.0,634.0,-201.0,10973.0,-9735.0,7230.0,-6319.0,9024.0,63.0
97713769165.0,174.0,-6203.0,484.0,34.0,108.0,-43.0,-3.0,688.0,511.0,220.0,-165.0,8721.0,9682150.0,721.0,0.0,-12140.0,644.0,-231.0,10980.0,-9726.0,7229.0,-6346.0,9015.0,63.0
97713789184.0,154.0,-6150.0,441.0,58.0,45.0,61.0,-5.0,686.0,514.0,225.0,-167.0,8711.0,9682150.0,721.0,0.0,-12130.0,654.0,-237.0,10991.0,-9712.0,7231.0,-6356.0,9022.0,63.0
97713809204.0,74.0,-6062.0,614.0,85.0,51.0,63.0,-10.0,686.0,514.0,235.0,-174.0,8697.0,9682150.0,721.0,0.0,-12113.0,682.0,-248.0,11008.0,-9690.0,7233.0,-6365.0,9037.0,63.0
97713829223.0,28.0,-5934.0,714.0,49.0,51.0,-7.0,-10.0,682.0,515.0,236.0,-174.0,8684.0,9682150.0,721.0,0.0,-12099.0,682.0,-250.0,11022.0,-9675.0,7230.0,-6379.0,9046.0,63.0
97713849243.0,-35.0,-5733.0,892.0,-28.0,51.0,-21.0,-9.0,683.0,515.0,245.0,-171.0,8678.0,9682275.0,721.0,0.0,-12092.0,685.0,-259.0,11030.0,-9667.0,7229.0,-6391.0,9047.0,63.0
97713869262.0,-88.0,-5631.0,847.0,-124.0,21.0,-33.0,-7.0,684.0,515.0,240.0,-168.0,8684.0,9682275.0,721.0,0.0,-12099.0,672.0,-254.0,11023.0,-9672.0,7232.0,-6392.0,9038.0,63.0
97713889282.0,-135.0,-5563.0,816.0,-235.0,-4.0,-67.0,-8.0,682.0,515.0,245.0,-162.0,8702.0,9682275.0,721.0,0.0,-12119.0,665.0,-258.0,11002.0,-9692.0,7237.0,-6386.0,9018.0,63.0
97713909301.0,-129.0,-5396.0,794.0,-323.0,-34.0,-95.0,-14.0,682.0,516.0,264.0,-153.0,8730.0,9682275.0,721.0,0.0,-12148.0,668.0,-278.0,10968.0,-9724.0,7242.0,-6372.0,8989.0,63.0
97713929321.0,-141.0,-5280.0,656.0,-400.0,-25.0,-181.0,-7.0,680.0,517.0,253.0,-137.0,8768.0,9681950.0,721.0,0.0,-12191.0,619.0,-265.0,10924.0,-9771.0,7247.0,-6357.0,8945.0,63.0
97713949340.0,-186.0,-4833.0,639.0,-428.0,-5.0,-299.0,-9.0,677.0,523.0,277.0,-108.0,8811.0,9681950.0,721.0,0.0,-12238.0,582.0,-289.0,10873.0,-9828.0,7244.0,-6351.0,8889.0,63.0
97713969360.0,-230.0,-4485.0,600.0,-390.0,11.0,-305.0,-4.0,674.0,525.0,285.0,-75.0,8852.0,9681950.0,721.0,0.0,-12283.0,516.0,-296.0,10825.0,-9884.0,7237.0,-6352.0,8830.0,63.0
97713989379.0,-293.0,-4162.0,551.0,-304.0,53.0,-267.0,-3.0,675.0,526.0,301.0,-46.0,8885.0,9681950.0,721.0,0.0,-12319.0,468.0,-312.0,10786.0,-9929.0,7233.0,-6358.0,8780.0,63.0
97714009399.0,-305.0,-4045.0,429.0,-186.0,135.0,-264.0,-3.0,677.0,531.0,325.0,-18.0,8906.0,9681884.0,721.0,0.0,-12343.0,428.0,-335.0,10760.0,-9957.0,7230.0,-6379.0,8735.0,63.0
97714029418.0,-212.0,-3700.0,498.0,-123.0,198.0,-246.0,-1.0,675.0,537.0,351.0,12.0,8917.0,9681884.0,721.0,0.0,-12355.0,387.0,-361.0,10746.0,-9973.0,7226.0,-6415.0,8694.0,63.0
97714049438.0,-194.0,-3362.0,507.0,-98.0,230.0,-172.0,-7.0,674.0,544.0,392.0,35.0,8925.0,9681884.0,721.0,0.0,-12364.0,380.0,-404.0,10735.0,-9978.0,7232.0,-6450.0,8657.0,63.0
97714069458.0,-120.0,-2854.0,419.0,-82.0,226.0,-81.0,-9.0,674.0,549.0,417.0,50.0,8932.0,9681884.0,721.0,0.0,-12371.0,374.0,-429.0,10725.0,-9976.0,7246.0,-6479.0,8626.0,63.0
97714089477.0,-67.0,-2471.0,246.0,-44.0,189.0,27.0,-9.0,676.0,550.0,418.0,53.0,8938.0,9681704.0,721.0,0.0,-12378.0,369.0,-430.0,10718.0,-9967.0,7268.0,-6496.0,8605.0,63.0
97714109497.0,-127.0,-2477.0,33.0,0.0,125.0,109.0,-10.0,674.0,550.0,406.0,43.0,8940.0,9681704.0,721.0,0.0,-12379.0,376.0,-417.0,10717.0,-9950.0,7292.0,-6501.0,8600.0,63.0
97714129516.0,-154.0,-2667.0,-209.0,-58.0,62.0,177.0,-7.0,678.0,557.0,365.0,26.0,8946.0,9681704.0,721.0,0.0,-12385.0,371.0,-375.0,10712.0,-9936.0,7320.0,-6490.0,8601.0,63.0
97714149536.0,-241.0,-2770.0,-345.0,-145.0,2.0,212.0,-5.0,680.0,560.0,313.0,1.0,8961.0,9681704.0,721.0,0.0,-12401.0,369.0,-321.0,10695.0,-9929.0,7354.0,-6460.0,8602.0,63.0
97714169555.0,-339.0,-2723.0,-432.0,-190.0,-39.0,184.0,-6.0,682.0,564.0,271.0,-22.0,8983.0,9681476.0,721.0,0.0,-12423.0,378.0,-278.0,10670.0,-9932.0,7387.0,-6422.0,8599.0,63.0
97714189575.0,-507.0,-2520.0,-593.0,-126.0,-80.0,111.0,0.0,682.0,567.0,178.0,-52.0,9013.0,9681476.0,721.0,0.0,-12455.0,339.0,-182.0,10636.0,-9944.0,7421.0,-6368.0,8597.0,63.0
97714209594.0,-643.0,-2559.0,-824.0,-16.0,-56.0,55.0,4.0,683.0,571.0,136.0,-65.0,9023.0,9681476.0,721.0,0.0,-12465.0,320.0,-138.0,10626.0,-9948.0,7431.0,-6344.0,8601.0,63.0
97714229614.0,-709.0,-2651.0,-1188.0,81.0,77.0,-37.0,10.0,683.0,573.0,108.0,-66.0,9023.0,9681476.0,721.0,0.0,-12466.0,292.0,-110.0,10626.0,-9944.0,7435.0,-6346.0,8600.0,63.0
97714249633.0,-728.0,-2709.0,-1255.0,148.0,277.0,-138.0,9.0,683.0,574.0,133.0,-54.0,9014.0,9681628.0,721.0,0.0,-12457.0,290.0,-136.0,10636.0,-9928.0,7441.0,-6384.0,8587.0,63.0
97714269653.0,-642.0,-2757.0,-1289.0,208.0,476.0,-193.0,15.0,684.0,576.0,169.0,-29.0,8998.0,9681628.0,721.0,0.0,-12441.0,273.0,-173.0,10655.0,-9898.0,7451.0,-6455.0,8559.0,63.0
97714289672.0,-570.0,-2731.0,-1287.0,247.0,662.0,-214.0,16.0,684.0,580.0,239.0,1.0,8976.0,9681628.0,721.0,0.0,-12419.0,281.0,-245.0,10679.0,-9852.0,7473.0,-6552.0,8518.0,63.0
97714309692.0,-432.0,-2686.0,-1177.0,271.0,838.0,-244.0,15.0,690.0,581.0,332.0,38.0,8950.0,9681628.0,721.0,0.0,-12392.0,301.0,-341.0,10707.0,-9793.0,7504.0,-6674.0,8464.0,63.0
97714329711.0,-272.0,-2702.0,-1056.0,299.0,971.0,-270.0,9.0,692.0,578.0,458.0,82.0,8920.0,9681739.0,721.0,0.0,-12359.0,346.0,-472.0,10738.0,-9723.0,7541.0,-6816.0,8399.0,63.0
97714349731.0,-74.0,-2849.0,-999.0,315.0,1063.0,-297.0,0.0,697.0,575.0,598.0,130.0,8886.0,9681739.0,721.0,0.0,-12323.0,397.0,-618.0,10771.0,-9645.0,7581.0,-6972.0,8324.0,63.0
97714369750.0,63.0,-2979.0,-951.0,305.0,1109.0,-337.0,-8.0,696.0,570.0,746.0,182.0,8852.0,9681739.0,721.0,0.0,-12285.0,445.0,-774.0,10802.0,-9565.0,7622.0,-7137.0,8239.0,63.0
97714389770.0,158.0,-3054.0,-937.0,271.0,1108.0,-345.0,-22.0,701.0,565.0,903.0,236.0,8819.0,9681739.0,721.0,0.0,-12249.0,502.0,-940.0,10827.0,-9487.0,7663.0,-7300.0,8149.0,63.0
97714409790.0,236.0,-3238.0,-957.0,212.0,1055.0,-313.0,-36.0,707.0,561.0,1053.0,286.0,8792.0,9681391.0,721.0,0.0,-12218.0,559.0,-1098.0,10845.0,-9413.0,7705.0,-7451.0,8056.0,63.0
97714429809.0,323.0,-3290.0,-978.0,151.0,968.0,-239.0,-49.0,713.0,557.0,1180.0,328.0,8771.0,9681391.0,721.0,0.0,-12194.0,607.0,-1232.0,10855.0,-9345.0,7751.0,-7584.0,7967.0,63.0
97714449829.0,355.0,-3455.0,-1001.0,128.0,869.0,-166.0,-69.0,716.0,556.0,1304.0,359.0,8754.0,9681391.0,721.0,0.0,-12172.0,677.0,-1363.0,10860.0,-9280.0,7799.0,-7696.0,7889.0,63.0
97714469848.0,367.0,-3649.0,-1056.0,131.0,775.0,-135.0,-81.0,716.0,554.0,1398.0,384.0,8738.0,9681391.0,721.0,0.0,-12152.0,727.0,-1464.0,10866.0,-9219.0,7843.0,-7793.0,7821.0,63.0
97714489868.0,383.0,-3724.0,-1078.0,157.0,687.0,-106.0,-94.0,721.0,549.0,1480.0,405.0,8720.0,9681512.0,721.0,0.0,-12130.0,773.0,-1552.0,10875.0,-9161.0,7880.0,-7882.0,7763.0,63.0
97714509887.0,383.0,-3878.0,-1122.0,191.0,611.0,-78.0,-106.0,724.0,547.0,1551.0,421.0,8699.0,9681512.0,721.0,0.0,-12105.0,816.0,-1629.0,10889.0,-9103.0,7911.0,-7961.0,7718.0,63.0
97714529907.0,365.0,-3945.0,-1125.0,210.0,565.0,-91.0,-117.0,725.0,546.0,1614.0,436.0,8675.0,9681512.0,721.0,0.0,-12077.0,852.0,-1699.0,10906.0,-9048.0,7934.0,-8038.0,7680.0,63.0
97714549926.0,334.0,-3923.0,-1076.0,228.0,529.0,-122.0,-125.0,727.0,539.0,1672.0,454.0,8649.0,9681512.0,721.0,0.0,-12048.0,877.0,-1764.0,10926.0,-8996.0,7950.0,-8114.0,7644.0,63.0
97714569946.0,305.0,-3940.0,-985.0,262.0,501.0,-126.0,-135.0,730.0,532.0,1736.0,472.0,8620.0,9681709.0,721.0,0.0,-12014.0,907.0,-1837.0,10948.0,-8945.0,7960.0,-8191.0,7613.0,63.0
97714589965.0,288.0,-3933.0,-922.0,319.0,480.0,-134.0,-145.0,730.0,523.0,1799.0,490.0,8584.0,9681709.0,721.0,0.0,-11975.0,936.0,-1909.0,10977.0,-8891.0,7962.0,-8270.0,7587.0,63.0
97714609985.0,259.0,-3895.0,-813.0,363.0,458.0,-135.0,-155.0,737.0,521.0,1858.0,508.0,8543.0,9681709.0,721.0,0.0,-11929.0,959.0,-1979.0,11013.0,-8834.0,7957.0,-8352.0,7569.0,63.0
97714630004.0,265.0,-3971.0,-840.0,367.0,438.0,-133.0,-162.0,740.0,512.0,1911.0,524.0,8501.0,9681709.0,721.0,0.0,-11882.0,978.0,-2044.0,11049.0,-8779.0,7950.0,-8432.0,7552.0,63.0
97714650024.0,264.0,-4059.0,-939.0,286.0,432.0,-181.0,-169.0,742.0,508.0,1966.0,544.0,8467.0,9681647.0,721.0,0.0,-11844.0,992.0,-2109.0,11077.0,-8732.0,7945.0,-8507.0,7527.0,63.0
97714670043.0,261.0,-4086.0,-972.0,149.0,448.0,-280.0,-181.0,746.0,498.0,2050.0,574.0,8446.0,9681647.0,721.0,0.0,-11819.0,1019.0,-2202.0,11083.0,-8701.0,7944.0,-8579.0,7482.0,63.0
97714690063.0,304.0,-4039.0,-975.0,5.0,464.0,-351.0,-184.0,753.0,489.0,2123.0,613.0,8441.0,9681647.0,721.0,0.0,-11813.0,1013.0,-2281.0,11074.0,-8687.0,7949.0,-8648.0,7414.0,63.0
97714710083.0,321.0,-3941.0,-844.0,-79.0,479.0,-392.0,-199.0,754.0,478.0,2237.0,657.0,8445.0,9681647.0,721.0,0.0,-11815.0,1042.0,-2400.0,11044.0,-8682.0,7959.0,-8714.0,7332.0,63.0
97714730102.0,428.0,-3767.0,-762.0,-105.0,443.0,-389.0,-208.0,759.0,473.0,2333.0,703.0,8452.0,9681638.0,721.0,0.0,-11822.0,1045.0,-2499.0,11014.0,-8684.0,7968.0,-8775.0,7246.0,63.0
97714750122.0,521.0,-3838.0,-774.0,-104.0,388.0,-362.0,-211.0,757.0,470.0,2403.0,746.0,8462.0,9681638.0,721.0,0.0,-11834.0,1027.0,-2571.0,10987.0,-8688.0,7976.0,-8829.0,7165.0,63.0
97714770141.0,553.0,-3913.0,-793.0,-103.0,333.0,-375.0,-215.0,758.0,466.0,2465.0,789.0,8472.0,9681638.0,721.0,0.0,-11846.0,1001.0,-2633.0,10961.0,-8697.0,7981.0,-8877.0,7090.0,63.0
97714790161.0,601.0,-3980.0,-795.0,-96.0,278.0,-400.0,-226.0,756.0,466.0,2543.0,834.0,8482.0,9681638.0,721.0,0.0,-11858.0,987.0,-2711.0,10931.0,-8713.0,7978.0,-8923.0,7016.0,63.0
97714810180.0,691.0,-3889.0,-707.0,-64.0,215.0,-415.0,-236.0,753.0,462.0,2618.0,882.0,8489.0,9681391.0,721.0,0.0,-11867.0,963.0,-2787.0,10904.0,-8734.0,7964.0,-8967.0,6949.0,63.0
97714830200.0,736.0,-4069.0,-748.0,-25.0,141.0,-459.0,-244.0,752.0,457.0,2685.0,932.0,8493.0,9681391.0,721.0,0.0,-11874.0,925.0,-2856.0,10881.0,-8761.0,7940.0,-9009.0,6888.0,63.0
97714850219.0,782.0,-3962.0,-697.0,-16.0,72.0,-500.0,-258.0,756.0,452.0,2763.0,988.0,8497.0,9681391.0,721.0,0.0,-11880.0,886.0,-2935.0,10857.0,-8797.0,7904.0,-9050.0,6829.0,63.0
97714870239.0,839.0,-3991.0,-692.0,-35.0,-20.0,-484.0,-266.0,757.0,449.0,2817.0,1043.0,8504.0,9681391.0,721.0,0.0,-11891.0,824.0,-2989.0,10835.0,-8842.0,7862.0,-9082.0,6777.0,63.0
97714890258.0,874.0,-3978.0,-628.0,-67.0,-119.0,-466.0,-282.0,754.0,445.0,2888.0,1095.0,8515.0,9681538.0,721.0,0.0,-11905.0,787.0,-3059.0,10803.0,-8896.0,7818.0,-9101.0,6733.0,63.0
97714910278.0,924.0,-3954.0,-615.0,-110.0,-228.0,-431.0,-289.0,754.0,443.0,2920.0,1142.0,8534.0,9681538.0,721.0,0.0,-11929.0,715.0,-3086.0,10774.0,-8961.0,7772.0,-9103.0,6695.0,63.0
97714930297.0,968.0,-4047.0,-634.0,-141.0,-335.0,-392.0,-299.0,753.0,440.0,2950.0,1185.0,8560.0,9681538.0,721.0,0.0,-11959.0,654.0,-3109.0,10738.0,-9035.0,7727.0,-9090.0,6668.0,63.0
97714950317.0,977.0,-4052.0,-547.0,-171.0,-439.0,-412.0,-299.0,750.0,434.0,2951.0,1226.0,8591.0,9681538.0,721.0,0.0,-11995.0,560.0,-3100.0,10705.0,-9120.0,7675.0,-9064.0,6646.0,63.0
97714970336.0,1081.0,-4013.0,-349.0,-183.0,-587.0,-424.0,-308.0,748.0,433.0,2962.0,1269.0,8626.0,9681572.0,721.0,0.0,-12034.0,474.0,-3101.0,10665.0,-9219.0,7611.0,-9029.0,6631.0,63.0
97714990356.0,1156.0,-4091.0,-249.0,-184.0,-805.0,-397.0,-313.0,745.0,437.0,2938.0,1308.0,8667.0,9681572.0,721.0,0.0,-12080.0,356.0,-3063.0,10629.0,-9335.0,7535.0,-8971.0,6634.0,63.0
97715010375.0,1150.0,-5062.0,-566.0,-182.0,-1016.0,-417.0,-317.0,742.0,441.0,2885.0,1339.0,8719.0,9681572.0,721.0,0.0,-12135.0,222.0,-2995.0,10589.0,-9471.0,7448.0,-8884.0,6655.0,63.0
97715030395.0,995.0,-4800.0,-384.0,-240.0,-1180.0,-519.0,-324.0,739.0,443.0,2846.0,1379.0,8778.0,9681572.0,721.0,0.0,-12195.0,83.0,-2939.0,10538.0,-9630.0,7340.0,-8787.0,6678.0,63.0
97715050415.0,1108.0,-4319.0,-163.0,-208.0,-1361.0,-410.0,-327.0,736.0,444.0,2778.0,1413.0,8842.0,9681497.0,721.0,0.0,-12259.0,-80.0,-2852.0,10488.0,-9800.0,7219.0,-8670.0,6714.0,63.0
97715070434.0,943.0,-5057.0,-185.0,-77.0,-1501.0,-352.0,-324.0,727.0,449.0,2658.0,1425.0,8898.0,9681497.0,721.0,0.0,-12312.0,-255.0,-2716.0,10459.0,-9964.0,7090.0,-8531.0,6788.0,63.0
97715090454.0,1015.0,-4093.0,-52.0,46.0,-1523.0,-333.0,-320.0,722.0,452.0,2538.0,1442.0,8943.0,9681497.0,721.0,0.0,-12351.0,-440.0,-2584.0,10440.0,-10124.0,6939.0,-8399.0,6871.0,63.0
97715110473.0,1111.0,-3880.0,158.0,236.0,-1464.0,-305.0,-319.0,716.0,454.0,2427.0,1452.0,8966.0,9681497.0,721.0,0.0,-12367.0,-598.0,-2468.0,10442.0,-10259.0,6778.0,-8280.0,6974.0,63.0
97715130493.0,1309.0,-4505.0,65.0,418.0,-1339.0,-442.0,-314.0,715.0,460.0,2314.0,1474.0,8967.0,9681598.0,721.0,0.0,-12356.0,-782.0,-2355.0,10468.0,-10377.0,6598.0,-8189.0,7080.0,63.0
97715150512.0,1459.0,-4504.0,-129.0,504.0,-1115.0,-581.0,-308.0,713.0,466.0,2238.0,1517.0,8953.0,9681598.0,721.0,0.0,-12327.0,-971.0,-2284.0,10502.0,-10479.0,6404.0,-8137.0,7166.0,63.0
97715170532.0,1547.0,-4209.0,-137.0,466.0,-866.0,-610.0,-304.0,715.0,468.0,2199.0,1572.0,8932.0,9681598.0,721.0,0.0,-12290.0,-1142.0,-2250.0,10536.0,-10563.0,6222.0,-8116.0,7228.0,63.0
97715190551.0,1638.0,-3808.0,39.0,384.0,-647.0,-519.0,-307.0,716.0,466.0,2208.0,1625.0,8912.0,9681598.0,721.0,0.0,-12256.0,-1251.0,-2265.0,10559.0,-10626.0,6067.0,-8112.0,7272.0,63.0
97715210571.0,1720.0,-3447.0,315.0,373.0,-484.0,-315.0,-303.0,718.0,470.0,2189.0,1662.0,8887.0,9681497.0,721.0,0.0,-12219.0,-1356.0,-2251.0,10593.0,-10663.0,5948.0,-8113.0,7315.0,63.0
97715230590.0,1676.0,-3332.0,429.0,463.0,-376.0,-96.0,-299.0,719.0,465.0,2157.0,1675.0,8849.0,9681497.0,721.0,0.0,-12175.0,-1416.0,-2228.0,10640.0,-10670.0,5858.0,-8112.0,7378.0,63.0
97715250610.0,1556.0,-3285.0,338.0,572.0,-285.0,83.0,-302.0,720.0,462.0,2129.0,1668.0,8798.0,9681497.0,721.0,0.0,-12124.0,-1421.0,-2211.0,10702.0,-10650.0,5789.0,-8111.0,7463.0,63.0
97715270629.0,1331.0,-3535.0,40.0,647.0,-167.0,222.0,-297.0,725.0,461.0,2065.0,1642.0,8736.0,9681497.0,721.0,0.0,-12062.0,-1423.0,-2159.0,10781.0,-10604.0,5742.0,-8110.0,7563.0,63.0
97715290649.0,1122.0,-3682.0,-242.0,654.0,22.0,294.0,-293.0,728.0,452.0,2019.0,1608.0,8666.0,9681397.0,721.0,0.0,-11997.0,-1386.0,-2126.0,10865.0,-10538.0,5718.0,-8120.0,7663.0,63.0
97715310668.0,898.0,-3916.0,-549.0,612.0,278.0,308.0,-290.0,734.0,441.0,1998.0,1572.0,8594.0,9681397.0,721.0,0.0,-11931.0,-1314.0,-2119.0,10947.0,-10452.0,5722.0,-8150.0,7746.0,63.0
97715330688.0,673.0,-3959.0,-808.0,510.0,608.0,278.0,-292.0,737.0,429.0,2042.0,1539.0,8521.0,9681397.0,721.0,0.0,-11872.0,-1180.0,-2180.0,11015.0,-10347.0,5756.0,-8209.0,7799.0,63.0
97715350708.0,402.0,-3883.0,-902.0,369.0,987.0,274.0,-289.0,740.0,421.0,2109.0,1509.0,8452.0,9681397.0,721.0,0.0,-11814.0,-1027.0,-2265.0,11074.0,-10221.0,5831.0,-8300.0,7813.0,63.0
97715370727.0,198.0,-3706.0,-860.0,227.0,1365.0,347.0,-289.0,745.0,403.0,2227.0,1473.0,8386.0,9681568.0,721.0,0.0,-11763.0,-809.0,-2405.0,11118.0,-10067.0,5954.0,-8420.0,7792.0,63.0
97715390747.0,137.0,-3816.0,-856.0,118.0,1737.0,462.0,-292.0,746.0,389.0,2385.0,1425.0,8322.0,9681568.0,721.0,0.0,-11713.0,-520.0,-2587.0,11147.0,-9881.0,6128.0,-8559.0,7743.0,63.0
97715410766.0,58.0,-3996.0,-715.0,25.0,2088.0,453.0,-291.0,749.0,375.0,2557.0,1372.0,8259.0,9681568.0,721.0,0.0,-11656.0,-207.0,-2786.0,11169.0,-9662.0,6341.0,-8725.0,7662.0,63.0
97715430786.0,38.0,-3913.0,-620.0,-43.0,2398.0,417.0,-297.0,757.0,357.0,2786.0,1322.0,8198.0,9681568.0,721.0,0.0,-11591.0,155.0,-3046.0,11170.0,-9419.0,6579.0,-8918.0,7542.0,63.0
97715450805.0,56.0,-3889.0,-460.0,-98.0,2650.0,414.0,-299.0,759.0,342.0,3029.0,1270.0,8137.0,9681286.0,721.0,0.0,-11514.0,533.0,-3322.0,11159.0,-9148.0,6836.0,-9129.0,7392.0,63.0
97715470825.0,73.0,-3838.0,-286.0,-155.0,2831.0,405.0,-309.0,761.0,323.0,3319.0,1216.0,8079.0,9681286.0,721.0,0.0,-11423.0,962.0,-3646.0,11123.0,-8854.0,7107.0,-9350.0,7216.0,63.0
97715490844.0,103.0,-3711.0,-122.0,-217.0,2929.0,412.0,-314.0,757.0,305.0,3610.0,1159.0,8028.0,9681286.0,721.0,0.0,-11322.0,1392.0,-3969.0,11070.0,-8545.0,7386.0,-9569.0,7019.0,63.0
97715510864.0,214.0,-3792.0,-21.0,-268.0,2956.0,436.0,-321.0,760.0,280.0,3913.0,1097.0,7986.0,9681286.0,721.0,0.0,-11210.0,1841.0,-4302.0,10993.0,-8227.0,7668.0,-9777.0,6807.0,63.0
97715530883.0,335.0,-3890.0,107.0,-319.0,2909.0,400.0,-329.0,758.0,258.0,4219.0,1036.0,7954.0,9681367.0,721.0,0.0,-11090.0,2287.0,-4631.0,10896.0,-7908.0,7943.0,-9971.0,6585.0,63.0
97715550903.0,388.0,-3817.0,254.0,-370.0,2781.0,325.0,-336.0,758.0,240.0,4516.0,982.0,7933.0,9681367.0,721.0,0.0,-10971.0,2704.0,-4944.0,10784.0,-7602.0,8201.0,-10148.0,6354.0,63.0
97715570922.0,491.0,-3655.0,370.0,-411.0,2602.0,302.0,-348.0,755.0,217.0,4828.0,933.0,7922.0,9681367.0,721.0,0.0,-10846.0,3123.0,-5265.0,10644.0,-7315.0,8442.0,-10303.0,6123.0,63.0
97715590942.0,609.0,-3675.0,406.0,-440.0,2398.0,276.0,-351.0,755.0,195.0,5107.0,888.0,7922.0,9681367.0,721.0,0.0,-10730.0,3501.0,-5544.0,10502.0,-7048.0,8665.0,-10433.0,5900.0,63.0
97715610961.0,719.0,-3794.0,344.0,-463.0,2170.0,256.0,-349.0,753.0,175.0,5359.0,848.0,7933.0,9681508.0,721.0,0.0,-10625.0,3840.0,-5787.0,10358.0,-6807.0,8870.0,-10538.0,5688.0,63.0
97715630981.0,807.0,-3868.0,311.0,-468.0,1951.0,267.0,-353.0,747.0,160.0,5593.0,810.0,7950.0,9681508.0,721.0,0.0,-10524.0,4159.0,-6006.0,10211.0,-6587.0,9058.0,-10620.0,5493.0,63.0
97715651000.0,803.0,-4120.0,194.0,-467.0,1763.0,235.0,-356.0,743.0,148.0,5802.0,774.0,7973.0,9681508.0,721.0,0.0,-10433.0,4450.0,-6195.0,10069.0,-6388.0,9232.0,-10684.0,5313.0,63.0
97715671020.0,831.0,-4262.0,146.0,-471.0,1620.0,174.0,-358.0,737.0,136.0,6008.0,747.0,8000.0,9681508.0,721.0,0.0,-10347.0,4720.0,-6376.0,9921.0,-6211.0,9389.0,-10736.0,5139.0,63.0
97715691040.0,844.0,-4481.0,104.0,-444.0,1520.0,130.0,-359.0,736.0,124.0,6208.0,726.0,8027.0,9681472.0,721.0,0.0,-10262.0,4972.0,-6548.0,9772.0,-6047.0,9533.0,-10783.0,4970.0,63.0
97715711059.0,836.0,-4640.0,53.0,-404.0,1467.0,63.0,-365.0,726.0,115.0,6413.0,713.0,8052.0,9681472.0,721.0,0.0,-10174.0,5211.0,-6724.0,9619.0,-5893.0,9662.0,-10828.0,4802.0,63.0
97715731079.0,775.0,-4714.0,167.0,-334.0,1473.0,-22.0,-361.0,720.0,110.0,6588.0,709.0,8069.0,9681472.0,721.0,0.0,-10096.0,5399.0,-6875.0,9490.0,-5743.0,9775.0,-10883.0,4629.0,63.0
97715751098.0,599.0,-5762.0,-7.0,-234.0,1471.0,-75.0,-363.0,710.0,106.0,6768.0,709.0,8079.0,9681472.0,721.0,0.0,-10009.0,5581.0,-7034.0,9359.0,-5591.0,9876.0,-10943.0,4456.0,63.0
97715771118.0,478.0,-5339.0,98.0,-243.0,1468.0,40.0,-362.0,705.0,87.0,6995.0,704.0,8082.0,9681578.0,721.0,0.0,-9881.0,5813.0,-7238.0,9197.0,-5430.0,9971.0,-11004.0,4289.0,63.0
97715791137.0,283.0,-5198.0,56.0,-285.0,1475.0,342.0,-360.0,699.0,76.0,7167.0,667.0,8093.0,9681578.0,721.0,0.0,-9748.0,6055.0,-7387.0,9063.0,-5240.0,10087.0,-11044.0,4152.0,63.0
97715811157.0,23.0,-4483.0,578.0,-334.0,1521.0,359.0,-361.0,692.0,65.0,7333.0,619.0,8102.0,9681578.0,721.0,0.0,-9597.0,6311.0,-7530.0,8932.0,-5031.0,10205.0,-11080.0,4023.0,63.0
97715831176.0,-257.0,-4189.0,785.0,-316.0,1543.0,354.0,-361.0,684.0,58.0,7489.0,573.0,8115.0,9681578.0,721.0,0.0,-9450.0,6553.0,-7661.0,8802.0,-4819.0,10324.0,-11113.0,3886.0,63.0
97715851196.0,-416.0,-4760.0,838.0,-228.0,1511.0,460.0,-358.0,679.0,44.0,7653.0,517.0,8122.0,9681538.0,721.0,0.0,-9273.0,6815.0,-7802.0,8666.0,-4596.0,10435.0,-11145.0,3764.0,63.0
97715871215.0,-697.0,-4270.0,955.0,-168.0,1451.0,621.0,-350.0,674.0,33.0,7784.0,444.0,8123.0,9681538.0,721.0,0.0,-9083.0,7068.0,-7918.0,8558.0,-4358.0,10539.0,-11175.0,3670.0,63.0
97715891235.0,-841.0,-4319.0,739.0,-87.0,1368.0,833.0,-344.0,673.0,30.0,7849.0,349.0,8123.0,9681538.0,721.0,0.0,-8903.0,7294.0,-7977.0,8504.0,-4103.0,10642.0,-11193.0,3609.0,63.0
97715911254.0,-905.0,-4307.0,916.0,29.0,1356.0,844.0,-339.0,670.0,19.0,7935.0,247.0,8111.0,9681538.0,721.0,0.0,-8679.0,7537.0,-8063.0,8441.0,-3839.0,10727.0,-11220.0,3565.0,63.0
97715931274.0,-999.0,-4286.0,699.0,138.0,1434.0,685.0,-333.0,671.0,9.0,8027.0,157.0,8092.0,9681472.0,721.0,0.0,-8457.0,7754.0,-8160.0,8377.0,-3577.0,10796.0,-11260.0,3503.0,63.0
97715951293.0,-948.0,-4449.0,464.0,173.0,1565.0,404.0,-321.0,670.0,-2.0,8246.0,96.0,8071.0,9681472.0,721.0,0.0,-8235.0,7955.0,-8296.0,8275.0,-3330.0,10851.0,-11316.0,3395.0,63.0
97715971313.0,-675.0,-4060.0,387.0,130.0,1666.0,211.0,-310.0,671.0,-13.0,8405.0,62.0,8052.0,9681472.0,721.0,0.0,-8030.0,8132.0,-8451.0,8146.0,-3098.0,10900.0,-11380.0,3243.0,63.0
97715991333.0,-616.0,-3864.0,239.0,22.0,1748.0,49.0,-303.0,667.0,-23.0,8587.0,44.0,8046.0,9681472.0,721.0,0.0,-7838.0,8308.0,-8612.0,7987.0,-2874.0,10955.0,-11436.0,3059.0,63.0
97716011352.0,-418.0,-3653.0,176.0,-106.0,1786.0,-102.0,-300.0,665.0,-39.0,8816.0,46.0,8053.0,9681664.0,721.0,0.0,-7648.0,8495.0,-8791.0,7776.0,-2669.0,11019.0,-11480.0,2842.0,63.0
97716031372.0,-264.0,-3382.0,237.0,-200.0,1756.0,-135.0,-295.0,663.0,-49.0,9037.0,55.0,8071.0,9681664.0,721.0,0.0,-7485.0,8665.0,-8949.0,7564.0,-2476.0,11086.0,-11512.0,2614.0,63.0
97716051391.0,-140.0,-3417.0,113.0,-248.0,1685.0,-98.0,-290.0,659.0,-60.0,9264.0,63.0,8097.0,9681664.0,721.0,0.0,-7317.0,8844.0,-9097.0,7341.0,-2288.0,11159.0,-11529.0,2394.0,63.0
97716071411.0,60.0,-3452.0,14.0,-256.0,1544.0,-98.0,-284.0,657.0,-68.0,9566.0,77.0,8138.0,9681664.0,721.0,0.0,-7104.0,9075.0,-9275.0,7040.0,-2026.0,11261.0,-11539.0,2082.0,63.0
97716091430.0,120.0,-3462.0,-47.0,-234.0,1446.0,-105.0,-281.0,656.0,-78.0,9771.0,88.0,8163.0,9681503.0,721.0,0.0,-6957.0,9224.0,-9391.0,6836.0,-1866.0,11320.0,-11542.0,1888.0,63.0
97716111450.0,113.0,-3422.0,-187.0,-230.0,1346.0,-115.0,-275.0,651.0,-88.0,9980.0,100.0,8189.0,9681503.0,721.0,0.0,-6808.0,9370.0,-9504.0,6628.0,-1718.0,11374.0,-11540.0,1705.0,63.0
97716131469.0,95.0,-3492.0,-239.0,-241.0,1253.0,-116.0,-275.0,645.0,-98.0,10179.0,113.0,8215.0,9681503.0,721.0,0.0,-6668.0,9505.0,-9605.0,6430.0,-1581.0,11425.0,-11534.0,1532.0,63.0
97716151489.0,113.0,-3311.0,-256.0,-268.0,1155.0,-79.0,-276.0,641.0,-105.0,10349.0,124.0,8243.0,9681503.0,721.0,0.0,-6550.0,9624.0,-9682.0,6256.0,-1454.0,11475.0,-11521.0,1373.0,63.0
97716171508.0,82.0,-3524.0,-366.0,-294.0,1060.0,-66.0,-270.0,637.0,-109.0,10513.0,133.0,8275.0,9681508.0,721.0,0.0,-6434.0,9745.0,-9748.0,6084.0,-1334.0,11527.0,-11500.0,1229.0,63.0
97716191528.0,36.0,-3758.0,-450.0,-317.0,983.0,-103.0,-265.0,630.0,-115.0,10680.0,144.0,8310.0,9681508.0,721.0,0.0,-6321.0,9864.0,-9810.0,5909.0,-1228.0,11579.0,-11473.0,1092.0,63.0
97716211547.0,-26.0,-3675.0,-485.0,-322.0,906.0,-81.0,-270.0,627.0,-120.0,10815.0,156.0,8345.0,9681508.0,721.0,0.0,-6237.0,9963.0,-9851.0,5763.0,-1130.0,11630.0,-11444.0,964.0,63.0
97716231567.0,-123.0,-3706.0,-553.0,-345.0,839.0,-63.0,-273.0,625.0,-124.0,10935.0,164.0,8383.0,9681508.0,721.0,0.0,-6160.0,10059.0,-9879.0,5629.0,-1037.0,11681.0,-11409.0,849.0,63.0
97716251586.0,-87.0,-3984.0,-683.0,-385.0,796.0,-107.0,-274.0,620.0,-123.0,11037.0,177.0,8425.0,9681760.0,721.0,0.0,-6111.0,10143.0,-9891.0,5510.0,-954.0,11736.0,-11368.0,734.0,63.0
97716271606.0,-88.0,-4390.0,-745.0,-400.0,767.0,-210.0,-274.0,615.0,-121.0,11149.0,199.0,8470.0,9681760.0,721.0,0.0,-6072.0,10222.0,-9904.0,5380.0,-887.0,11791.0,-11323.0,613.0,63.0
97716291625.0,-113.0,-4486.0,-725.0,-361.0,721.0,-305.0,-276.0,610.0,-123.0,11275.0,233.0,8511.0,9681760.0,721.0,0.0,-6041.0,10292.0,-9926.0,5241.0,-836.0,11840.0,-11282.0,486.0,63.0
97716311645.0,-137.0,-4644.0,-745.0,-305.0,668.0,-350.0,-277.0,606.0,-119.0,11379.0,273.0,8546.0,9681760.0,721.0,0.0,-6037.0,10337.0,-9942.0,5124.0,-797.0,11881.0,-11247.0,359.0,63.0
97716331665.0,-128.0,-4687.0,-747.0,-290.0,627.0,-381.0,-282.0,599.0,-118.0,11482.0,317.0,8577.0,9681316.0,721.0,0.0,-6041.0,10373.0,-9959.0,5012.0,-768.0,11917.0,-11214.0,233.0,63.0
97716351684.0,-66.0,-5364.0,-994.0,-278.0,586.0,-412.0,-284.0,592.0,-117.0,11589.0,365.0,8609.0,9681316.0,721.0,0.0,-6048.0,10408.0,-9977.0,4895.0,-749.0,11953.0,-11179.0,110.0,63.0
97716371704.0,-150.0,-5511.0,-626.0,-256.0,598.0,-547.0,-284.0,585.0,-120.0,11731.0,423.0,8632.0,9681316.0,721.0,0.0,-6037.0,10443.0,-10018.0,4749.0,740.0,-11979.0,11152.0,23.0,63.0
97716391723.0,-160.0,-3518.0,-107.0,-183.0,546.0,-400.0,-293.0,580.0,-122.0,11844.0,479.0,8647.0,9681316.0,721.0,0.0,-6044.0,10455.0,-10053.0,4635.0,731.0,-11994.0,11135.0,150.0,63.0
97716411743.0,129.0,-6537.0,-980.0,-42.0,570.0,-269.0,-295.0,572.0,-123.0,11938.0,510.0,8657.0,9681559.0,721.0,0.0,-6021.0,10481.0,-10083.0,4541.0,699.0,-12008.0,11121.0,250.0,63.0
97716431762.0,-257.0,-4359.0,438.0,-112.0,714.0,-680.0,-297.0,564.0,-123.0,12074.0,577.0,8647.0,9681559.0,721.0,0.0,-6015.0,10471.0,-10152.0,4416.0,688.0,-11998.0,11128.0,402.0,63.0
97716451782.0,186.0,-3617.0,-252.0,-154.0,733.0,-425.0,-299.0,554.0,-127.0,12231.0,644.0,8661.0,9681559.0,721.0,0.0,-6001.0,10495.0,-10203.0,4259.0,671.0,-12013.0,11105.0,559.0,63.0
97716471801.0,151.0,-4911.0,152.0,-138.0,808.0,-364.0,-306.0,546.0,-127.0,12343.0,686.0,8660.0,9681559.0,721.0,0.0,-5974.0,10510.0,-10248.0,4151.0,618.0,-12016.0,11097.0,698.0,63.0
97716491821.0,269.0,-4260.0,63.0,-88.0,884.0,-507.0,-312.0,542.0,-135.0,12510.0,748.0,8659.0,9681542.0,721.0,0.0,-5932.0,10531.0,-10314.0,3990.0,578.0,-12017.0,11087.0,865.0,63.0
97716511840.0,437.0,-4300.0,64.0,50.0,948.0,-358.0,-317.0,535.0,-138.0,12654.0,802.0,8642.0,9681542.0,721.0,0.0,-5888.0,10534.0,-10387.0,3856.0,521.0,-12002.0,11091.0,1032.0,63.0
97716531860.0,389.0,-4022.0,411.0,157.0,961.0,-264.0,-323.0,529.0,-142.0,12781.0,840.0,8605.0,9681542.0,721.0,0.0,-5820.0,10528.0,-10472.0,3746.0,444.0,-11968.0,11117.0,1186.0,63.0
97716551879.0,415.0,-3392.0,584.0,247.0,911.0,-102.0,-324.0,526.0,-148.0,12902.0,865.0,8560.0,9681542.0,721.0,0.0,-5726.0,10524.0,-10563.0,3643.0,358.0,-11923.0,11153.0,1321.0,63.0
97716571899.0,439.0,-3870.0,429.0,292.0,838.0,109.0,-331.0,521.0,-154.0,12963.0,863.0,8511.0,9681649.0,721.0,0.0,-5634.0,10515.0,-10637.0,3599.0,252.0,-11875.0,11195.0,1419.0,63.0
97716591918.0,384.0,-4152.0,198.0,235.0,823.0,141.0,-331.0,522.0,-162.0,13033.0,850.0,8468.0,9681649.0,721.0,0.0,-5516.0,10526.0,-10706.0,3544.0,139.0,-11832.0,11231.0,1503.0,63.0
97716611938.0,375.0,-4207.0,-39.0,139.0,837.0,117.0,-329.0,517.0,-170.0,13103.0,839.0,8437.0,9681649.0,721.0,0.0,-5408.0,10545.0,-10763.0,3483.0,26.0,-11800.0,11253.0,1590.0,63.0
97716631958.0,387.0,-4243.0,-216.0,14.0,870.0,125.0,-326.0,516.0,-179.0,13186.0,828.0,8419.0,9681649.0,721.0,0.0,-5295.0,10581.0,-10809.0,3405.0,-91.0,-11782.0,11259.0,1681.0,63.0
97716651977.0,398.0,-4144.0,-271.0,-114.0,906.0,96.0,-328.0,513.0,-187.0,13258.0,819.0,8414.0,9681574.0,721.0,0.0,-5202.0,10621.0,-10837.0,3333.0,-213.0,-11777.0,11248.0,1779.0,63.0
97716672088.0,426.0,-3870.0,-261.0,-212.0,932.0,55.0,-324.0,509.0,-195.0,13356.0,816.0,8420.0,9681574.0,721.0,0.0,-5100.0,10678.0,-10860.0,3230.0,-334.0,-11782.0,11222.0,1886.0,63.0
97716692108.0,406.0,-3706.0,-310.0,-274.0,970.0,36.0,-315.0,508.0,-201.0,13475.0,815.0,8435.0,9681574.0,721.0,0.0,-4983.0,10750.0,-10881.0,3102.0,-459.0,-11794.0,11185.0,1999.0,63.0
97716712127.0,406.0,-3597.0,-353.0,-303.0,1037.0,24.0,-310.0,510.0,-208.0,13598.0,817.0,8452.0,9681574.0,721.0,0.0,-4869.0,10822.0,-10898.0,2970.0,-589.0,-11809.0,11141.0,2120.0,63.0
97716732147.0,420.0,-3517.0,-346.0,-304.0,1114.0,29.0,-304.0,507.0,-211.0,13726.0,819.0,8468.0,9681527.0,721.0,0.0,-4749.0,10894.0,-10915.0,2833.0,-728.0,-11820.0,11095.0,2251.0,63.0
97716752136.0,396.0,-3492.0,-414.0,-295.0,1197.0,61.0,-300.0,507.0,-218.0,13863.0,819.0,8483.0,9681527.0,721.0,0.0,-4614.0,10969.0,-10935.0,2686.0,-880.0,-11828.0,11047.0,2388.0,63.0
97716772155.0,328.0,-3507.0,-476.0,-280.0,1297.0,100.0,-302.0,505.0,-226.0,13989.0,816.0,8495.0,9681527.0,721.0,0.0,-4479.0,11039.0,-10953.0,2552.0,-1048.0,-11829.0,10999.0,2531.0,63.0
97716792144.0,269.0,-3252.0,-439.0,-268.0,1417.0,163.0,-295.0,504.0,-232.0,14140.0,807.0,8503.0,9681527.0,721.0,0.0,-4305.0,11117.0,-10980.0,2393.0,-1236.0,-11822.0,10951.0,2683.0,63.0
97716812164.0,298.0,-3132.0,-422.0,-253.0,1519.0,264.0,-290.0,500.0,-238.0,14284.0,790.0,8507.0,9681548.0,721.0,0.0,-4117.0,11193.0,-11007.0,2241.0,-1446.0,-11806.0,10904.0,2838.0,63.0
97716832153.0,361.0,-3432.0,-467.0,-247.0,1602.0,296.0,-280.0,500.0,-248.0,14451.0,767.0,8511.0,9681548.0,721.0,0.0,-3890.0,11278.0,-11037.0,2064.0,-1673.0,-11782.0,10854.0,2995.0,63.0
97716852172.0,439.0,-3559.0,-408.0,-245.0,1674.0,220.0,-277.0,500.0,-251.0,14597.0,751.0,8512.0,9681548.0,721.0,0.0,-3699.0,11344.0,-11063.0,1910.0,-1900.0,-11753.0,10799.0,3169.0,63.0
97716872192.0,598.0,-3470.0,-288.0,-233.0,1690.0,178.0,-265.0,497.0,-256.0,14780.0,744.0,8512.0,9681548.0,721.0,0.0,-3484.0,11412.0,-11095.0,1716.0,-2121.0,-11717.0,10740.0,3355.0,63.0
97716892211.0,689.0,-3555.0,-157.0,-209.0,1658.0,147.0,-255.0,494.0,-266.0,14961.0,739.0,8508.0,9681542.0,721.0,0.0,-3275.0,11470.0,-11127.0,1525.0,-2334.0,-11676.0,10681.0,3541.0,63.0
97716912231.0,793.0,-3543.0,-68.0,-166.0,1594.0,120.0,-248.0,494.0,-271.0,15123.0,738.0,8502.0,9681542.0,721.0,0.0,-3092.0,11513.0,-11156.0,1353.0,-2535.0,-11630.0,10623.0,3724.0,63.0
97716932250.0,869.0,-3873.0,-52.0,-109.0,1503.0,130.0,-231.0,497.0,-282.0,15309.0,736.0,8492.0,9681542.0,721.0,0.0,-2879.0,11557.0,-11190.0,1155.0,-2724.0,-11579.0,10571.0,3896.0,63.0
97716952270.0,906.0,-4060.0,59.0,-56.0,1391.0,140.0,-218.0,495.0,-287.0,15468.0,731.0,8475.0,9681542.0,721.0,0.0,-2688.0,11585.0,-11225.0,987.0,-2899.0,-11521.0,10527.0,4055.0,63.0
97716972290.0,932.0,-4198.0,66.0,-12.0,1280.0,183.0,-210.0,494.0,-294.0,15595.0,721.0,8457.0,9681533.0,721.0,0.0,-2520.0,11603.0,-11257.0,852.0,-3063.0,-11460.0,10492.0,4197.0,63.0
97716992614.0,890.0,-4186.0,88.0,-25.0,1174.0,193.0,-203.0,494.0,-300.0,15703.0,707.0,8440.0,9681533.0,721.0,0.0,-2365.0,11617.0,-11284.0,736.0,-3218.0,-11400.0,10459.0,4322.0,63.0
97717012603.0,838.0,-5277.0,-314.0,-20.0,1087.0,166.0,-195.0,492.0,-307.0,15796.0,692.0,8430.0,9681533.0,721.0,0.0,-2225.0,11634.0,-11301.0,636.0,-3364.0,-11349.0,10423.0,4432.0,63.0
97717032470.0,670.0,-5419.0,-205.0,-2.0,1066.0,56.0,-188.0,488.0,-316.0,15896.0,686.0,8415.0,9681533.0,721.0,0.0,-2097.0,11641.0,-11323.0,528.0,-3492.0,-11295.0,10389.0,4550.0,63.0
97717052612.0,484.0,-5145.0,-207.0,102.0,1051.0,106.0,-179.0,486.0,-323.0,15997.0,680.0,8393.0,9681533.0,721.0,0.0,-1966.0,11640.0,-11353.0,420.0,-3615.0,-11233.0,10362.0,4668.0,63.0
97717072631.0,238.0,-5105.0,-133.0,199.0,1056.0,221.0,-171.0,485.0,-327.0,16078.0,658.0,8358.0,9681533.0,721.0,0.0,-1821.0,11625.0,-11395.0,333.0,-3749.0,-11151.0,10355.0,4774.0,63.0
97717092620.0,-34.0,-3870.0,245.0,208.0,1021.0,300.0,-154.0,483.0,-334.0,16177.0,627.0,8317.0,9681704.0,721.0,0.0,-1636.0,11608.0,-11443.0,226.0,-3885.0,-11058.0,10358.0,4873.0,63.0
97717112426.0,-148.0,-4055.0,-21.0,221.0,909.0,543.0,-149.0,483.0,-340.0,16206.0,572.0,8284.0,9681704.0,721.0,0.0,-1477.0,11593.0,-11481.0,194.0,-4036.0,-10966.0,10368.0,4934.0,63.0
97717132659.0,-383.0,-4429.0,-34.0,160.0,850.0,585.0,-136.0,482.0,-347.0,16234.0,502.0,8254.0,9681704.0,721.0,0.0,-1287.0,11583.0,-11514.0,164.0,-4195.0,-10873.0,10386.0,4971.0,63.0
97717152648.0,-513.0,-4867.0,-551.0,45.0,831.0,529.0,-123.0,476.0,-354.0,16262.0,437.0,8245.0,9681704.0,721.0,0.0,-1110.0,11591.0,-11524.0,133.0,-4353.0,-10801.0,10382.0,5002.0,63.0
97717172637.0,-586.0,-4718.0,-490.0,-71.0,835.0,469.0,-112.0,473.0,-359.0,16295.0,380.0,8245.0,9681559.0,721.0,0.0,-946.0,11606.0,-11525.0,96.0,-4507.0,-10739.0,10364.0,5037.0,63.0
97717192504.0,-641.0,-4431.0,-398.0,-103.0,831.0,467.0,-101.0,470.0,-361.0,16329.0,325.0,8252.0,9681559.0,721.0,0.0,-786.0,11625.0,-11517.0,59.0,-4660.0,-10682.0,10338.0,5070.0,63.0
97717212677.0,-673.0,-4038.0,-234.0,-49.0,821.0,469.0,-91.0,467.0,-360.0,16357.0,270.0,8254.0,9681559.0,721.0,0.0,-633.0,11637.0,-11515.0,28.0,-4810.0,-10620.0,10317.0,5104.0,63.0
97717232666.0,-582.0,-4128.0,-290.0,53.0,825.0,442.0,-80.0,467.0,-365.0,16391.0,218.0,8250.0,9681559.0,721.0,0.0,477.0,-11639.0,11520.0,9.0,-4953.0,-10549.0,10302.0,5145.0,63.0
97717252685.0,-537.0,-4219.0,-246.0,130.0,836.0,308.0,-73.0,463.0,-372.0,16424.0,177.0,8235.0,9681568.0,721.0,0.0,350.0,-11628.0,11536.0,44.0,-5078.0,-10472.0,10290.0,5203.0,63.0
97717272674.0,-481.0,-3802.0,-169.0,176.0,814.0,244.0,-56.0,463.0,-378.0,16498.0,148.0,8215.0,9681568.0,721.0,0.0,201.0,-11609.0,11558.0,127.0,-5188.0,-10394.0,10278.0,5273.0,63.0
97717292663.0,-434.0,-3914.0,-181.0,204.0,780.0,230.0,-44.0,459.0,-381.0,16560.0,119.0,8192.0,9681568.0,721.0,0.0,69.0,-11585.0,11582.0,196.0,-5291.0,-10315.0,10270.0,5342.0,63.0
97717312683.0,-401.0,-3826.0,-175.0,180.0,746.0,134.0,-32.0,460.0,-382.0,16629.0,99.0,8171.0,9681568.0,721.0,0.0,-51.0,-11562.0,11604.0,273.0,-5381.0,-10243.0,10257.0,5415.0,63.0
97717332672.0,-347.0,-3717.0,-199.0,148.0,709.0,82.0,-25.0,456.0,-386.0,16689.0,87.0,8155.0,9681670.0,721.0,0.0,-145.0,-11543.0,11620.0,341.0,-5462.0,-10180.0,10237.0,5490.0,63.0
97717352691.0,-276.0,-3860.0,-248.0,105.0,670.0,32.0,-14.0,456.0,-386.0,16762.0,80.0,8143.0,9681670.0,721.0,0.0,-241.0,-11529.0,11630.0,422.0,-5535.0,-10126.0,10212.0,5563.0,63.0
97717372680.0,-215.0,-3782.0,-307.0,50.0,632.0,-27.0,-7.0,453.0,-387.0,16831.0,80.0,8138.0,9681670.0,721.0,0.0,-318.0,-11521.0,11633.0,499.0,-5601.0,-10084.0,10178.0,5635.0,63.0
97717392700.0,-199.0,-3695.0,-296.0,10.0,604.0,-59.0,-1.0,450.0,-392.0,16896.0,83.0,8137.0,9681670.0,721.0,0.0,-381.0,-11518.0,11631.0,572.0,-5661.0,-10049.0,10140.0,5705.0,63.0
97717412719.0,-177.0,-3667.0,-325.0,-8.0,574.0,-61.0,0.0,447.0,-394.0,16943.0,89.0,8139.0,9681528.0,721.0,0.0,-422.0,-11519.0,11625.0,625.0,-5718.0,-10020.0,10099.0,5771.0,63.0
97717432739.0,-195.0,-3437.0,-249.0,-18.0,536.0,-43.0,12.0,445.0,-397.0,17023.0,92.0,8142.0,9681528.0,721.0,0.0,-503.0,-11519.0,11618.0,714.0,-5774.0,-9991.0,10061.0,5832.0,63.0
97717452758.0,-179.0,-3391.0,-281.0,-13.0,496.0,14.0,20.0,446.0,-396.0,17089.0,90.0,8145.0,9681528.0,721.0,0.0,-579.0,-11519.0,11609.0,786.0,-5830.0,-9963.0,10027.0,5883.0,63.0
97717472778.0,-155.0,-3876.0,-367.0,-2.0,480.0,-5.0,22.0,444.0,-395.0,17129.0,88.0,8148.0,9681528.0,721.0,0.0,-629.0,-11519.0,11603.0,831.0,-5884.0,-9935.0,9995.0,5930.0,63.0
97717492797.0,-165.0,-3806.0,-324.0,3.0,467.0,-73.0,23.0,440.0,-392.0,17173.0,93.0,8149.0,9681498.0,721.0,0.0,-666.0,-11519.0,11598.0,879.0,-5929.0,-9910.0,9961.0,5985.0,63.0
97717512817.0,-153.0,-3850.0,-355.0,4.0,423.0,-49.0,27.0,435.0,-396.0,17220.0,98.0,8151.0,9681498.0,721.0,0.0,-708.0,-11518.0,11592.0,931.0,-5970.0,-9887.0,9929.0,6035.0,63.0
97717532836.0,-141.0,-3966.0,-390.0,-23.0,357.0,-54.0,32.0,436.0,-397.0,17263.0,101.0,8154.0,9681498.0,721.0,0.0,-747.0,-11520.0,11584.0,979.0,-6007.0,-9870.0,9899.0,6076.0,63.0
97717552856.0,-143.0,-4067.0,-461.0,-59.0,302.0,-104.0,34.0,434.0,-401.0,17295.0,110.0,8163.0,9681498.0,721.0,0.0,-765.0,-11528.0,11571.0,1014.0,-6036.0,-9863.0,9866.0,6113.0,63.0
97717572875.0,-154.0,-4149.0,-517.0,-92.0,273.0,-188.0,34.0,433.0,-401.0,17326.0,126.0,8176.0,9681513.0,721.0,0.0,-763.0,-11542.0,11555.0,1047.0,-6056.0,-9866.0,9826.0,6151.0,63.0
97717592895.0,-154.0,-4284.0,-587.0,-117.0,269.0,-294.0,35.0,430.0,-403.0,17372.0,154.0,8191.0,9681513.0,721.0,0.0,-753.0,-11560.0,11533.0,1096.0,-6066.0,-9880.0,9777.0,6197.0,63.0
97717612915.0,-139.0,-4380.0,-648.0,-134.0,268.0,-379.0,38.0,428.0,-402.0,17436.0,193.0,8209.0,9681513.0,721.0,0.0,-739.0,-11581.0,11506.0,1164.0,-6067.0,-9902.0,9720.0,6251.0,63.0
97717632934.0,-119.0,-4135.0,-598.0,-153.0,261.0,-400.0,40.0,425.0,-399.0,17505.0,236.0,8227.0,9681513.0,721.0,0.0,-722.0,-11602.0,11478.0,1238.0,-6065.0,-9927.0,9659.0,6308.0,63.0
97717652954.0,-46.0,-4762.0,-868.0,-149.0,266.0,-380.0,34.0,424.0,-400.0,17545.0,277.0,8250.0,9681367.0,721.0,0.0,-676.0,-11630.0,11449.0,1279.0,-6065.0,-9955.0,9595.0,6360.0,63.0
97717672973.0,-159.0,-4641.0,-379.0,-112.0,295.0,-478.0,35.0,424.0,-401.0,17619.0,325.0,8260.0,9681367.0,721.0,0.0,-653.0,-11643.0,11428.0,1359.0,-6056.0,-9973.0,9536.0,6428.0,63.0
97717692993.0,-109.0,-3772.0,-209.0,11.0,222.0,-292.0,33.0,423.0,-399.0,17670.0,364.0,8261.0,9681367.0,721.0,0.0,-622.0,-11645.0,11420.0,1414.0,-6045.0,-9981.0,9495.0,6488.0,63.0
97717713012.0,-2.0,-5519.0,-644.0,166.0,204.0,-112.0,32.0,423.0,-402.0,17689.0,376.0,8252.0,9681367.0,721.0,0.0,-616.0,-11636.0,11427.0,1436.0,-6047.0,-9967.0,9482.0,6525.0,63.0
97717733032.0,-192.0,-5996.0,-229.0,253.0,310.0,-455.0,34.0,421.0,-402.0,17749.0,410.0,8222.0,9681585.0,721.0,0.0,-605.0,-11603.0,11452.0,1507.0,-6024.0,-9942.0,9469.0,6603.0,63.0
97717753051.0,-137.0,-4322.0,134.0,306.0,356.0,-456.0,39.0,422.0,-406.0,17847.0,465.0,8184.0,9681585.0,721.0,0.0,-590.0,-11561.0,11479.0,1620.0,-5984.0,-9916.0,9447.0,6710.0,63.0
97717773071.0,-130.0,-3631.0,685.0,289.0,323.0,-138.0,42.0,419.0,-403.0,17913.0,486.0,8141.0,9681585.0,721.0,0.0,-614.0,-11512.0,11516.0,1699.0,-5972.0,-9867.0,9449.0,6789.0,63.0
97717793090.0,-27.0,-3827.0,505.0,235.0,277.0,-102.0,40.0,417.0,-406.0,17941.0,494.0,8111.0,9681585.0,721.0,0.0,-624.0,-11478.0,11544.0,1735.0,-5973.0,-9827.0,9452.0,6843.0,63.0
97717813110.0,30.0,-4734.0,422.0,217.0,412.0,-400.0,39.0,412.0,-408.0,18000.0,525.0,8082.0,9681339.0,721.0,0.0,-620.0,-11447.0,11564.0,1805.0,-5963.0,-9796.0,9431.0,6924.0,63.0
97717833251.0,145.0,-4157.0,568.0,232.0,541.0,-596.0,37.0,408.0,-406.0,18107.0,587.0,8049.0,9681339.0,721.0,0.0,-599.0,-11411.0,11581.0,1928.0,-5936.0,-9769.0,9382.0,7051.0,63.0
97717853149.0,308.0,-3952.0,876.0,305.0,581.0,-416.0,38.0,404.0,-410.0,18213.0,638.0,8005.0,9681339.0,721.0,0.0,-600.0,-11361.0,11608.0,2054.0,-5918.0,-9722.0,9344.0,7180.0,63.0
97717873168.0,346.0,-4083.0,902.0,310.0,536.0,-211.0,39.0,398.0,-412.0,18289.0,663.0,7959.0,9681339.0,721.0,0.0,-624.0,-11309.0,11641.0,2147.0,-5920.0,-9661.0,9326.0,7284.0,63.0
97717893188.0,397.0,-4046.0,793.0,238.0,473.0,-49.0,38.0,394.0,-413.0,18335.0,670.0,7923.0,9681333.0,721.0,0.0,-655.0,-11266.0,11670.0,2205.0,-5938.0,-9601.0,9316.0,7360.0,63.0
97717913208.0,331.0,-4148.0,700.0,143.0,435.0,98.0,40.0,394.0,-417.0,18366.0,658.0,7897.0,9681333.0,721.0,0.0,-712.0,-11234.0,11690.0,2245.0,-5975.0,-9544.0,9313.0,7409.0,63.0
97717933227.0,241.0,-4038.0,646.0,58.0,425.0,203.0,44.0,392.0,-418.0,18388.0,634.0,7882.0,9681333.0,721.0,0.0,-786.0,-11212.0,11702.0,2272.0,-6029.0,-9489.0,9310.0,7439.0,63.0
97717953247.0,148.0,-3976.0,632.0,17.0,413.0,303.0,41.0,387.0,-417.0,18374.0,598.0,7873.0,9681333.0,721.0,0.0,-848.0,-11196.0,11714.0,2259.0,-6097.0,-9433.0,9311.0,7454.0,63.0
97717973266.0,85.0,-3934.0,622.0,8.0,409.0,362.0,45.0,387.0,-419.0,18366.0,554.0,7867.0,9681483.0,721.0,0.0,-933.0,-11182.0,11723.0,2252.0,-6172.0,-9374.0,9315.0,7461.0,63.0
97717993286.0,112.0,-4043.0,410.0,16.0,389.0,315.0,56.0,387.0,-415.0,18366.0,491.0,7860.0,9681483.0,721.0,0.0,-1068.0,-11161.0,11731.0,2253.0,-6281.0,-9290.0,9320.0,7469.0,63.0
